// General information: 
//  MT Manager version: 2020.3.0 
//  XDA version: 2020.3.0 build 5439 rev 106958 built on 2020-11-10
// Device information: 
//  DeviceId: 00B46A05
//  ProductCode: MTW2-3A7G6
//  Firmware Version: 4.4.0
//  Hardware Version: 2.0.0
// Device settings: 
//  Filter Profile: human(46.1)
//  Option Flags: Orientation Smoother Disabled, Position/Velocity Smoother Disabled, Continuous Zero Rotation Update Disabled, AHS Disabled, ICC Disabled
// Coordinate system: ENU
PacketCounter,StatusWord,ClippingFlags,RSSI,Acc_X,Acc_Y,Acc_Z,FreeAcc_E,FreeAcc_N,FreeAcc_U,Gyr_X,Gyr_Y,Gyr_Z,Mag_X,Mag_Y,Mag_Z,VelInc_X,VelInc_Y,VelInc_Z,OriInc_q0,OriInc_q1,OriInc_q2,OriInc_q3,Quat_q0,Quat_q1,Quat_q2,Quat_q3,Roll,Pitch,Yaw,Mat[1][1],Mat[2][1],Mat[3][1],Mat[1][2],Mat[2][2],Mat[3][2],Mat[1][3],Mat[2][3],Mat[3][3]
30829,2,0,-66.0000,3.441628,0.446150,9.193143,0.008539,0.031555,0.013638,0.004465,0.011174,0.000609,-0.493028,0.385830,-1.117844,0.034421,0.004460,0.091930,1.000000,0.000022,0.000056,0.000003,0.999998,-0.001233,0.001249,0.000510,-0.141193,0.143140,0.058302,0.999996,0.001018,-0.002498,-0.001024,0.999996,-0.002464,0.002496,0.002467,0.999994
30830,2,0,-66.0000,3.440607,0.446235,9.193521,0.008004,0.031537,0.013638,-0.002312,0.011095,0.000204,-0.496874,0.377979,-1.113162,0.034411,0.004463,0.091933,1.000000,-0.000012,0.000055,0.000001,0.999998,-0.001244,0.001277,0.000499,-0.142479,0.146357,0.056953,0.999996,0.000994,-0.002554,-0.001000,0.999996,-0.002487,0.002552,0.002489,0.999994
30831,2,0,-66.0000,3.451587,0.421265,9.214613,0.011920,0.005653,0.036162,0.001411,0.010008,0.001683,-0.495304,0.390661,-1.122892,0.034520,0.004212,0.092144,1.000000,0.000007,0.000050,0.000008,0.999998,-0.001237,0.001301,0.000480,-0.141652,0.149203,0.054773,0.999996,0.000956,-0.002604,-0.000962,0.999996,-0.002472,0.002602,0.002475,0.999994
30832,2,0,-66.0000,3.407537,0.419781,9.238031,-0.036945,0.003044,0.042635,-0.001343,0.012226,-0.000313,-0.496774,0.392134,-1.107180,0.034081,0.004198,0.092378,1.000000,-0.000007,0.000061,-0.000002,0.999998,-0.001243,0.001335,0.000467,-0.142326,0.153081,0.053370,0.999996,0.000931,-0.002672,-0.000938,0.999996,-0.002484,0.002669,0.002487,0.999993
30833,2,0,-66.0000,3.438364,0.397390,9.193101,0.008646,-0.017206,0.010397,0.001860,0.011162,-0.000901,-0.497442,0.391438,-1.113733,0.034389,0.003973,0.091929,1.000000,0.000009,0.000056,-0.000005,0.999998,-0.001235,0.001365,0.000493,-0.141457,0.156498,0.056318,0.999996,0.000983,-0.002731,-0.000990,0.999996,-0.002469,0.002729,0.002472,0.999993
30834,2,0,-66.0000,3.403932,0.421702,9.184241,-0.020453,0.007276,-0.008892,0.000892,0.010030,-0.000383,-0.502418,0.388791,-1.122005,0.034044,0.004217,0.091841,1.000000,0.000004,0.000050,-0.000002,0.999998,-0.001230,0.001388,0.000484,-0.140896,0.159121,0.055275,0.999996,0.000965,-0.002777,-0.000972,0.999997,-0.002459,0.002775,0.002462,0.999993
30835,2,0,-66.0000,3.435997,0.422190,9.194598,0.006473,0.007121,0.012019,0.003946,0.011195,-0.001454,-0.499285,0.387374,-1.116461,0.034365,0.004220,0.091944,1.000000,0.000020,0.000056,-0.000007,0.999998,-0.001211,0.001416,0.000494,-0.138647,0.162375,0.056426,0.999995,0.000985,-0.002834,-0.000992,0.999997,-0.002420,0.002832,0.002423,0.999993
30836,2,0,-66.0000,3.425418,0.397052,9.227191,-0.013833,-0.019989,0.037774,0.004026,0.010141,-0.005623,-0.498580,0.389452,-1.113479,0.034259,0.003968,0.092270,1.000000,0.000020,0.000051,-0.000028,0.999998,-0.001182,0.001441,0.000466,-0.135358,0.165200,0.053210,0.999995,0.000929,-0.002883,-0.000935,0.999997,-0.002362,0.002881,0.002365,0.999993
30837,2,0,-66.0000,3.431778,0.473449,9.142284,0.020761,0.059993,-0.036258,0.000961,0.008853,0.004271,-0.497530,0.384982,-1.116968,0.034322,0.004735,0.091421,1.000000,0.000005,0.000044,0.000021,0.999998,-0.001186,0.001456,0.000489,-0.135793,0.166934,0.055849,0.999995,0.000975,-0.002914,-0.000982,0.999997,-0.002370,0.002911,0.002373,0.999993
30838,2,0,-66.0000,3.433616,0.398722,9.194817,0.005936,-0.017249,0.010399,0.003428,0.011217,-0.003519,-0.495676,0.392229,-1.119818,0.034341,0.003985,0.091946,1.000000,0.000017,0.000056,-0.000018,0.999998,-0.001164,0.001486,0.000470,-0.133255,0.170320,0.053666,0.999995,0.000937,-0.002973,-0.000944,0.999997,-0.002326,0.002970,0.002329,0.999993
30839,2,0,-66.0000,3.420351,0.448107,9.175199,-0.000047,0.032871,-0.010504,-0.001644,0.008841,0.002758,-0.499368,0.393807,-1.112770,0.034208,0.004482,0.091750,1.000000,-0.000008,0.000044,0.000014,0.999998,-0.001176,0.001504,0.000488,-0.134704,0.172370,0.055679,0.999995,0.000972,-0.003008,-0.000979,0.999997,-0.002351,0.003006,0.002354,0.999993
30840,2,0,-66.0000,3.431580,0.423073,9.196207,0.003808,0.007057,0.012021,0.000591,0.006645,0.002688,-0.496784,0.389754,-1.114094,0.034319,0.004231,0.091961,1.000000,0.000003,0.000033,0.000013,0.999998,-0.001178,0.001509,0.000492,-0.134887,0.172976,0.056139,0.999995,0.000980,-0.003019,-0.000987,0.999997,-0.002354,0.003017,0.002357,0.999993
30841,2,0,-66.0000,3.430463,0.447341,9.197258,0.002162,0.031443,0.013642,-0.002162,0.008863,0.000691,-0.501561,0.392205,-1.121509,0.034309,0.004475,0.091971,1.000000,-0.000011,0.000044,0.000003,0.999998,-0.001193,0.001525,0.000515,-0.136566,0.174783,0.058824,0.999995,0.001027,-0.003051,-0.001034,0.999997,-0.002384,0.003048,0.002387,0.999993
30842,2,0,-66.0000,3.430523,0.398374,9.195987,0.003804,-0.017247,0.010400,-0.001045,0.007765,0.000656,-0.500469,0.389813,-1.116781,0.034309,0.003984,0.091959,1.000000,-0.000005,0.000039,0.000003,0.999998,-0.001198,0.001536,0.000507,-0.137232,0.176083,0.057893,0.999995,0.001010,-0.003073,-0.001018,0.999997,-0.002395,0.003071,0.002398,0.999992
30843,2,0,-66.0000,3.418933,0.445656,9.230864,-0.019803,0.028684,0.041010,-0.003730,0.008807,0.003312,-0.497307,0.386688,-1.111314,0.034193,0.004459,0.092307,1.000000,-0.000019,0.000044,0.000017,0.999998,-0.001223,0.001551,0.000529,-0.140076,0.177771,0.060457,0.999995,0.001055,-0.003103,-0.001063,0.999996,-0.002445,0.003100,0.002448,0.999992
30844,2,0,-66.0000,3.438631,0.423308,9.164341,0.022489,0.009844,-0.015345,-0.002613,0.007709,0.003277,-0.496178,0.389778,-1.119871,0.034390,0.004235,0.091642,1.000000,-0.000013,0.000039,0.000016,0.999998,-0.001241,0.001561,0.000531,-0.142107,0.178970,0.060613,0.999995,0.001058,-0.003124,-0.001066,0.999996,-0.002480,0.003121,0.002484,0.999992
30845,2,0,-66.0000,3.417950,0.420445,9.230635,-0.019777,0.004324,0.039387,-0.003581,0.006577,0.003794,-0.496115,0.383855,-1.113099,0.034182,0.004207,0.092305,1.000000,-0.000018,0.000033,0.000019,0.999998,-0.001265,0.001566,0.000545,-0.144816,0.179574,0.062186,0.999994,0.001085,-0.003134,-0.001093,0.999996,-0.002528,0.003131,0.002531,0.999992
30846,2,0,-66.0000,3.426867,0.445719,9.198677,-0.000531,0.031399,0.013642,-0.001643,0.008841,0.002760,-0.499439,0.396920,-1.122298,0.034273,0.004458,0.091985,1.000000,-0.000008,0.000044,0.000014,0.999998,-0.001277,0.001583,0.000546,-0.146234,0.181434,0.062288,0.999994,0.001087,-0.003167,-0.001095,0.999996,-0.002552,0.003164,0.002556,0.999992
30847,2,0,-66.0000,3.416544,0.419762,9.231187,-0.020844,0.004317,0.039385,-0.004617,0.006622,-0.000340,-0.502531,0.389963,-1.115460,0.034169,0.004200,0.092311,1.000000,-0.000023,0.000033,-0.000002,0.999998,-0.001299,0.001589,0.000549,-0.148770,0.182153,0.062729,0.999994,0.001095,-0.003179,-0.001103,0.999996,-0.002597,0.003176,0.002600,0.999992
30848,2,0,-65.0000,3.437464,0.420172,9.219940,0.002785,0.005595,0.036169,-0.002013,0.006633,0.001175,-0.499282,0.388779,-1.115083,0.034378,0.004203,0.092198,1.000000,-0.000010,0.000033,0.000006,0.999998,-0.001310,0.001594,0.000542,-0.150048,0.182791,0.061854,0.999994,0.001080,-0.003190,-0.001088,0.999996,-0.002619,0.003187,0.002622,0.999991
30849,2,0,-66.0000,3.435038,0.446012,9.166400,0.018701,0.034157,-0.013719,-0.002464,0.005479,0.003760,-0.501327,0.386212,-1.113110,0.034353,0.004462,0.091663,1.000000,-0.000012,0.000027,0.000019,0.999998,-0.001329,0.001591,0.000556,-0.152234,0.182436,0.063491,0.999994,0.001108,-0.003184,-0.001117,0.999996,-0.002657,0.003181,0.002661,0.999991
30850,2,0,-66.0000,3.436377,0.419472,9.220378,0.001664,0.005586,0.036169,-0.003581,0.006577,0.003796,-0.488500,0.380268,-1.122954,0.034367,0.004197,0.092203,1.000000,-0.000018,0.000033,0.000019,0.999998,-0.001352,0.001596,0.000558,-0.154877,0.182972,0.063703,0.999994,0.001112,-0.003193,-0.001120,0.999996,-0.002703,0.003190,0.002707,0.999991
30851,2,0,-66.0000,3.412386,0.444312,9.178349,-0.006480,0.032761,-0.010506,-0.005667,0.006543,0.004349,-0.494979,0.391404,-1.117510,0.034127,0.004446,0.091782,1.000000,-0.000028,0.000033,0.000022,0.999998,-0.001383,0.001603,0.000539,-0.158368,0.183785,0.061532,0.999994,0.001074,-0.003208,-0.001083,0.999996,-0.002764,0.003205,0.002767,0.999991
30852,2,0,-66.0000,3.413218,0.441945,9.233157,-0.024611,0.028528,0.040999,-0.004181,0.007652,0.005900,-0.490710,0.389012,-1.117072,0.034136,0.004422,0.092330,1.000000,-0.000021,0.000038,0.000030,0.999998,-0.001413,0.001613,0.000550,-0.161763,0.184882,0.062776,0.999994,0.001096,-0.003227,-0.001105,0.999995,-0.002823,0.003224,0.002827,0.999991
30853,2,0,-66.0000,3.445166,0.394492,9.187273,0.022145,-0.016094,0.007192,-0.005889,0.002106,0.003244,-0.495602,0.384542,-1.122793,0.034453,0.003948,0.091872,1.000000,-0.000029,0.000011,0.000016,0.999998,-0.001446,0.001599,0.000573,-0.165610,0.183274,0.065383,0.999994,0.001141,-0.003199,-0.001150,0.999995,-0.002890,0.003195,0.002894,0.999991
30854,2,0,-66.0000,3.423448,0.393416,9.198836,-0.002559,-0.017405,0.010400,0.000887,0.002184,0.003655,-0.500542,0.390905,-1.119364,0.034235,0.003934,0.091988,1.000000,0.000004,0.000011,0.000018,0.999998,-0.001448,0.001581,0.000581,-0.165784,0.181303,0.066315,0.999994,0.001157,-0.003164,-0.001167,0.999995,-0.002893,0.003161,0.002897,0.999991
30855,2,0,-66.0000,3.423161,0.393268,9.198950,-0.003069,-0.017449,0.010400,-0.001347,0.004380,0.003726,-0.495005,0.380673,-1.112583,0.034234,0.003934,0.091989,1.000000,-0.000007,0.000022,0.000019,0.999998,-0.001459,0.001576,0.000589,-0.167043,0.180743,0.067196,0.999994,0.001173,-0.003155,-0.001182,0.999995,-0.002915,0.003151,0.002919,0.999991
30856,2,0,-67.0000,3.400887,0.416741,9.211353,-0.028860,0.005577,0.015225,-0.000230,0.003282,0.003691,-0.499104,0.393261,-1.111393,0.034010,0.004168,0.092113,1.000000,-0.000001,0.000016,0.000018,0.999998,-0.001466,0.001565,0.000595,-0.167835,0.179399,0.067948,0.999994,0.001186,-0.003131,-0.001195,0.999995,-0.002929,0.003128,0.002933,0.999991
30857,2,0,-67.0000,3.444717,0.440709,9.243848,0.000231,0.028269,0.061938,-0.000747,0.003305,0.001623,-0.496632,0.387699,-1.117275,0.034449,0.004408,0.092438,1.000000,-0.000004,0.000017,0.000008,0.999998,-0.001472,0.001553,0.000590,-0.168519,0.178042,0.067359,0.999994,0.001176,-0.003107,-0.001185,0.999995,-0.002941,0.003104,0.002945,0.999991
30858,2,0,-67.0000,3.410351,0.417495,9.178578,-0.009055,0.008301,-0.012129,-0.004402,0.003215,0.004795,-0.494162,0.380210,-1.118296,0.034105,0.004178,0.091785,1.000000,-0.000022,0.000016,0.000024,0.999998,-0.001500,0.001540,0.000595,-0.171771,0.176629,0.067861,0.999995,0.001184,-0.003083,-0.001194,0.999995,-0.002998,0.003079,0.003002,0.999991
30859,2,0,-66.0000,3.443046,0.417205,9.188783,0.017902,0.008052,0.008819,-0.003950,0.004370,0.002211,-0.499527,0.393145,-1.114430,0.034432,0.004174,0.091887,1.000000,-0.000020,0.000022,0.000011,0.999998,-0.001519,0.001537,0.000570,-0.173925,0.176210,0.065056,0.999995,0.001135,-0.003075,-0.001145,0.999995,-0.003036,0.003072,0.003039,0.999991
30860,2,0,-66.0000,3.421274,0.416185,9.200360,-0.006803,0.006744,0.012019,-0.000082,0.001052,0.004172,-0.497933,0.381905,-1.119365,0.034213,0.004163,0.092003,1.000000,-0.000000,0.000005,0.000021,0.999998,-0.001526,0.001514,0.000579,-0.174712,0.173577,0.066043,0.999995,0.001153,-0.003029,-0.001162,0.999995,-0.003049,0.003026,0.003053,0.999991
30861,2,0,-66.0000,3.442371,0.416711,9.189059,0.016826,0.008004,0.008821,-0.001641,0.008839,0.002766,-0.500948,0.382229,-1.111343,0.034428,0.004168,0.091889,1.000000,-0.000008,0.000044,0.000014,0.999997,-0.001537,0.001530,0.000579,-0.176064,0.175412,0.066086,0.999995,0.001153,-0.003062,-0.001163,0.999995,-0.003073,0.003058,0.003076,0.999991
30862,2,0,-72.0000,3.432232,0.390814,9.221467,-0.003525,-0.019101,0.034548,-0.000682,0.002127,0.006276,-0.488347,0.394644,-1.116419,0.034323,0.003910,0.092214,1.000000,-0.000003,0.000011,0.000031,0.999997,-0.001551,0.001512,0.000597,-0.177604,0.173340,0.068106,0.999995,0.001189,-0.003025,-0.001198,0.999994,-0.003100,0.003022,0.003103,0.999991
30863,2,0,-66.0000,3.430411,0.392302,9.167077,0.013594,-0.014896,-0.016948,-0.001494,0.006609,0.003247,-0.494339,0.385470,-1.115744,0.034307,0.003924,0.091670,1.000000,-0.000007,0.000033,0.000016,0.999997,-0.001564,0.001518,0.000612,-0.179074,0.174078,0.069818,0.999995,0.001219,-0.003038,-0.001228,0.999994,-0.003125,0.003034,0.003129,0.999991
30864,2,0,-66.0000,3.419418,0.415372,9.201087,-0.008924,0.006672,0.012018,0.001709,0.005544,0.002659,-0.499617,0.382080,-1.123906,0.034197,0.004153,0.092010,1.000000,0.000009,0.000028,0.000013,0.999997,-0.001560,0.001518,0.000617,-0.178640,0.174057,0.070463,0.999995,0.001230,-0.003038,-0.001239,0.999994,-0.003118,0.003034,0.003122,0.999991
30865,2,0,-66.0000,3.440792,0.391931,9.189022,0.015830,-0.016468,0.007204,0.004248,0.006732,-0.000477,-0.502939,0.390335,-1.112983,0.034411,0.003917,0.091889,1.000000,0.000021,0.000034,-0.000002,0.999997,-0.001535,0.001526,0.000591,-0.175806,0.175020,0.067435,0.999995,0.001177,-0.003055,-0.001186,0.999995,-0.003068,0.003051,0.003072,0.999991
30866,2,0,-66.0000,3.429430,0.439898,9.223789,-0.007771,0.029438,0.037788,0.004395,0.004502,0.000004,-0.496021,0.395480,-1.116126,0.034296,0.004397,0.092237,1.000000,0.000022,0.000023,0.000000,0.999998,-0.001514,0.001522,0.000588,-0.173389,0.174472,0.067173,0.999995,0.001172,-0.003045,-0.001182,0.999995,-0.003026,0.003042,0.003030,0.999991
30867,2,0,-66.0000,3.439473,0.417127,9.190125,0.013643,0.007898,0.008826,0.004912,0.004479,0.002072,-0.502388,0.396826,-1.115839,0.034397,0.004169,0.091901,1.000000,0.000025,0.000022,0.000010,0.999998,-0.001497,0.001515,0.000628,-0.171484,0.173665,0.071740,0.999995,0.001252,-0.003031,-0.001261,0.999995,-0.002993,0.003027,0.002997,0.999991
30868,2,0,-66.0000,3.438812,0.417458,9.190357,0.013107,0.007879,0.008827,0.003502,0.010037,0.001147,-0.506709,0.389765,-1.107118,0.034393,0.004173,0.091902,1.000000,0.000018,0.000050,0.000006,0.999998,-0.001483,0.001537,0.000631,-0.169828,0.176255,0.072043,0.999994,0.001257,-0.003076,-0.001266,0.999995,-0.002964,0.003072,0.002968,0.999991
30869,2,0,-66.0000,3.395066,0.416154,9.213527,-0.035886,0.005374,0.015202,0.000223,0.004436,0.001108,-0.499414,0.388676,-1.123754,0.033953,0.004162,0.092135,1.000000,0.000001,0.000022,0.000006,0.999998,-0.001488,0.001526,0.000652,-0.170373,0.174969,0.074470,0.999994,0.001300,-0.003054,-0.001309,0.999995,-0.002974,0.003050,0.002978,0.999991
30870,2,0,-66.0000,3.448454,0.465833,9.213867,0.013019,0.055139,0.036219,0.001256,0.004390,0.005245,-0.496242,0.386282,-1.112762,0.034486,0.004659,0.092138,1.000000,0.000006,0.000022,0.000026,0.999998,-0.001491,0.001519,0.000669,-0.170688,0.174220,0.076382,0.999994,0.001333,-0.003041,-0.001342,0.999995,-0.002979,0.003037,0.002983,0.999991
30871,2,0,-66.0000,3.415829,0.416580,9.202365,-0.012772,0.006607,0.012014,-0.003950,0.004370,0.002211,-0.501581,0.393518,-1.123538,0.034160,0.004168,0.092023,1.000000,-0.000020,0.000022,0.000011,0.999997,-0.001511,0.001514,0.000662,-0.173080,0.173622,0.075647,0.999995,0.001320,-0.003030,-0.001329,0.999995,-0.003021,0.003026,0.003025,0.999991
30872,2,0,-66.0000,3.436983,0.416952,9.191065,0.010863,0.007874,0.008829,-0.001347,0.004380,0.003728,-0.490964,0.392124,-1.115703,0.034372,0.004171,0.091910,1.000000,-0.000007,0.000022,0.000019,0.999997,-0.001524,0.001508,0.000667,-0.174489,0.172904,0.076221,0.999995,0.001330,-0.003018,-0.001339,0.999994,-0.003045,0.003014,0.003049,0.999991
30873,2,0,-65.0000,3.425223,0.417213,9.169640,0.007107,0.009356,-0.015322,-0.001200,0.002150,0.004209,-0.501310,0.385330,-1.115237,0.034253,0.004173,0.091696,1.000000,-0.000006,0.000011,0.000021,0.999997,-0.001538,0.001492,0.000710,-0.176106,0.171119,0.081130,0.999995,0.001416,-0.002987,-0.001425,0.999994,-0.003074,0.002982,0.003078,0.999991
30874,2,0,-66.0000,3.414815,0.415689,9.202782,-0.014343,0.006589,0.012011,-0.002980,0.005501,0.001695,-0.491065,0.388048,-1.117515,0.034151,0.004159,0.092027,1.000000,-0.000015,0.000028,0.000008,0.999997,-0.001554,0.001492,0.000703,-0.177996,0.171095,0.080312,0.999995,0.001402,-0.002986,-0.001411,0.999994,-0.003107,0.002982,0.003111,0.999991
30875,2,0,-66.0000,3.426336,0.390388,9.223678,-0.010519,-0.019252,0.034542,-0.003803,0.002140,0.002692,-0.500790,0.390475,-1.120785,0.034264,0.003906,0.092236,1.000000,-0.000019,0.000011,0.000013,0.999997,-0.001575,0.001476,0.000695,-0.180358,0.169266,0.079334,0.999995,0.001385,-0.002954,-0.001394,0.999994,-0.003148,0.002950,0.003152,0.999991
30876,2,0,-66.0000,3.435681,0.415818,9.191603,0.008782,0.007815,0.008831,0.002226,0.005520,0.004730,-0.495421,0.385109,-1.113558,0.034359,0.004158,0.091915,1.000000,0.000011,0.000028,0.000024,0.999997,-0.001572,0.001475,0.000711,-0.180060,0.169179,0.081193,0.999995,0.001417,-0.002953,-0.001426,0.999994,-0.003143,0.002948,0.003147,0.999991
30877,2,0,-66.0000,3.413893,0.415019,9.203154,-0.015921,0.006499,0.012009,-0.002086,-0.000033,0.000551,-0.502857,0.392425,-1.115979,0.034139,0.004151,0.092032,1.000000,-0.000010,-0.000000,0.000003,0.999997,-0.001581,0.001448,0.000699,-0.181111,0.166048,0.079823,0.999995,0.001393,-0.002898,-0.001402,0.999994,-0.003161,0.002894,0.003165,0.999991
30878,2,0,-66.0000,3.423284,0.440525,9.171061,0.003385,0.033565,-0.013700,0.000593,0.006642,0.002698,-0.500630,0.390520,-1.110800,0.034236,0.004405,0.091709,1.000000,0.000003,0.000033,0.000013,0.999997,-0.001583,0.001453,0.000703,-0.181294,0.166653,0.080290,0.999995,0.001401,-0.002909,-0.001411,0.999994,-0.003164,0.002904,0.003168,0.999991
30879,2,0,-66.0000,3.424185,0.438737,9.225793,-0.014887,0.029383,0.037780,0.000740,0.004412,0.003178,-0.497647,0.386305,-1.108328,0.034244,0.004388,0.092257,1.000000,0.000004,0.000022,0.000016,0.999997,-0.001587,0.001444,0.000726,-0.181749,0.165605,0.082986,0.999995,0.001448,-0.002890,-0.001458,0.999994,-0.003172,0.002886,0.003176,0.999991
30880,2,0,-66.0000,3.434205,0.415476,9.192170,0.006581,0.007776,0.008833,-0.000376,0.005511,0.003214,-0.492194,0.388349,-1.108263,0.034345,0.004155,0.091921,1.000000,-0.000002,0.000028,0.000016,0.999997,-0.001594,0.001444,0.000731,-0.182546,0.165549,0.083507,0.999995,0.001457,-0.002889,-0.001467,0.999994,-0.003186,0.002885,0.003190,0.999991
30881,2,0,-66.0000,3.433756,0.415395,9.192341,0.006040,0.007774,0.008834,0.000224,0.004436,0.001109,-0.501095,0.383287,-1.124138,0.034340,0.004154,0.091923,1.000000,0.000001,0.000022,0.000006,0.999997,-0.001595,0.001438,0.000727,-0.182678,0.164904,0.083098,0.999995,0.001450,-0.002878,-0.001460,0.999994,-0.003188,0.002873,0.003192,0.999991
30882,2,0,-66.0000,3.411324,0.438949,9.204778,-0.019748,0.030810,0.013624,-0.001493,0.006609,0.003250,-0.499234,0.393437,-1.126315,0.034116,0.004391,0.092047,1.000000,-0.000007,0.000033,0.000016,0.999997,-0.001608,0.001443,0.000730,-0.184092,0.165475,0.083440,0.999995,0.001456,-0.002888,-0.001466,0.999994,-0.003213,0.002883,0.003217,0.999991
30883,2,0,-66.0000,3.454694,0.391442,9.180482,0.030247,-0.015359,0.004045,0.000224,0.004436,0.001109,-0.500853,0.390556,-1.117149,0.034549,0.003915,0.091804,1.000000,0.000001,0.000022,0.000006,0.999997,-0.001606,0.001439,0.000726,-0.183891,0.165016,0.082977,0.999995,0.001448,-0.002880,-0.001457,0.999994,-0.003209,0.002875,0.003214,0.999991
30884,2,0,-66.0000,3.442010,0.440583,9.160696,0.024312,0.034760,-0.016867,-0.002979,0.005501,0.001696,-0.502422,0.387293,-1.121300,0.034423,0.004407,0.091606,1.000000,-0.000015,0.000028,0.000008,0.999997,-0.001622,0.001439,0.000719,-0.185782,0.164991,0.082160,0.999995,0.001434,-0.002880,-0.001443,0.999994,-0.003242,0.002875,0.003247,0.999991
30885,2,0,-66.0000,3.421176,0.437855,9.226951,-0.018112,0.029242,0.037775,-0.002671,0.008885,-0.001368,-0.497618,0.395050,-1.112571,0.034216,0.004380,0.092268,1.000000,-0.000013,0.000044,-0.000007,0.999997,-0.001632,0.001455,0.000700,-0.186875,0.166837,0.079999,0.999995,0.001396,-0.002912,-0.001406,0.999994,-0.003262,0.002907,0.003266,0.999990
30886,2,0,-66.0000,3.430945,0.414453,9.193433,0.003362,0.007633,0.008835,-0.000977,0.006585,0.005320,-0.498183,0.384773,-1.118007,0.034312,0.004146,0.091933,1.000000,-0.000005,0.000033,0.000027,0.999997,-0.001645,0.001459,0.000714,-0.188425,0.167342,0.081553,0.999995,0.001423,-0.002921,-0.001433,0.999994,-0.003289,0.002916,0.003293,0.999990
30887,2,0,-66.0000,3.441761,0.413631,9.215238,0.006061,0.006166,0.032989,-0.003125,0.007730,0.001218,-0.493956,0.386375,-1.113987,0.034421,0.004138,0.092151,1.000000,-0.000016,0.000039,0.000006,0.999997,-0.001663,0.001470,0.000717,-0.190411,0.168586,0.081889,0.999995,0.001429,-0.002942,-0.001439,0.999993,-0.003323,0.002938,0.003327,0.999990
30888,2,0,-66.0000,3.418520,0.390041,9.171614,0.000126,-0.015260,-0.016939,-0.000522,0.007739,0.002736,-0.498466,0.383334,-1.124193,0.034189,0.003901,0.091715,1.000000,-0.000003,0.000039,0.000014,0.999997,-0.001670,0.001481,0.000720,-0.191211,0.169817,0.082178,0.999995,0.001434,-0.002964,-0.001444,0.999993,-0.003337,0.002959,0.003342,0.999990
30889,2,0,-66.0000,3.407454,0.412947,9.205634,-0.022383,0.006257,0.011997,-0.001947,0.005454,0.005836,-0.504298,0.385273,-1.126024,0.034077,0.004131,0.092055,1.000000,-0.000010,0.000027,0.000029,0.999997,-0.001686,0.001481,0.000717,-0.193032,0.169897,0.081909,0.999995,0.001430,-0.002965,-0.001440,0.999993,-0.003369,0.002960,0.003373,0.999990
30890,2,0,-66.0000,3.428526,0.413289,9.194388,0.001255,0.007518,0.008835,-0.002463,0.005477,0.003767,-0.497492,0.391590,-1.122622,0.034288,0.004135,0.091943,1.000000,-0.000012,0.000027,0.000019,0.999997,-0.001703,0.001481,0.000721,-0.195059,0.169806,0.082306,0.999995,0.001437,-0.002964,-0.001447,0.999993,-0.003404,0.002959,0.003409,0.999990
30891,2,0,-66.0000,3.449586,0.413759,9.183144,0.024905,0.008740,0.005677,-0.000892,0.005533,0.001147,-0.493306,0.385179,-1.114326,0.034498,0.004138,0.091830,1.000000,-0.000004,0.000028,0.000006,0.999997,-0.001707,0.001481,0.000713,-0.195502,0.169879,0.081420,0.999995,0.001421,-0.002965,-0.001431,0.999993,-0.003412,0.002960,0.003416,0.999990
30892,2,0,-66.0000,3.417431,0.411779,9.227763,-0.020749,0.004702,0.036148,0.002226,0.005519,0.004735,-0.499264,0.391381,-1.118599,0.034177,0.004118,0.092277,1.000000,0.000011,0.000028,0.000024,0.999997,-0.001705,0.001480,0.000729,-0.195205,0.169791,0.083281,0.999995,0.001454,-0.002963,-0.001464,0.999993,-0.003407,0.002958,0.003411,0.999990
30893,2,0,-66.0000,3.415472,0.437827,9.174102,-0.004625,0.033219,-0.013699,-0.001055,-0.000080,0.004690,-0.502922,0.387804,-1.116500,0.034155,0.004380,0.091741,1.000000,-0.000005,-0.000000,0.000023,0.999997,-0.001716,0.001453,0.000742,-0.196551,0.166619,0.084760,0.999995,0.001479,-0.002908,-0.001489,0.999993,-0.003430,0.002903,0.003435,0.999990
30894,2,0,-66.0000,3.438188,0.436544,9.217293,0.001299,0.030270,0.034611,-0.002378,0.004426,-0.000407,-0.504941,0.389186,-1.120844,0.034384,0.004366,0.092172,1.000000,-0.000012,0.000022,-0.000002,0.999997,-0.001726,0.001448,0.000726,-0.197688,0.166033,0.082912,0.999995,0.001447,-0.002898,-0.001457,0.999993,-0.003450,0.002893,0.003454,0.999990
30895,2,0,-66.0000,3.426863,0.412506,9.195043,-0.001447,0.007369,0.008836,-0.000601,0.001075,0.002105,-0.499998,0.387525,-1.120116,0.034269,0.004126,0.091950,1.000000,-0.000003,0.000005,0.000011,0.999997,-0.001731,0.001423,0.000718,-0.198270,0.163152,0.081956,0.999995,0.001430,-0.002848,-0.001440,0.999993,-0.003460,0.002843,0.003465,0.999990
30896,2,0,-66.0000,3.415374,0.412852,9.173510,-0.005209,0.008817,-0.015320,-0.001571,-0.000056,0.002620,-0.493892,0.386481,-1.121791,0.034154,0.004130,0.091735,1.000000,-0.000008,-0.000000,0.000013,0.999997,-0.001742,0.001394,0.000716,-0.199536,0.159924,0.081787,0.999995,0.001427,-0.002791,-0.001437,0.999993,-0.003483,0.002786,0.003487,0.999990
30897,2,0,-66.0000,3.426839,0.412197,9.195066,-0.002478,0.007291,0.008835,0.000516,-0.000024,0.002070,-0.511284,0.390718,-1.119233,0.034268,0.004122,0.091951,1.000000,0.000003,-0.000000,0.000010,0.999997,-0.001740,0.001369,0.000711,-0.199326,0.156966,0.081251,0.999995,0.001418,-0.002740,-0.001428,0.999993,-0.003479,0.002735,0.003483,0.999990
30898,2,0,-66.0000,3.426749,0.412069,9.195105,-0.003014,0.007273,0.008835,-0.001717,0.002173,0.002141,-0.488895,0.396432,-1.112878,0.034268,0.004122,0.091951,1.000000,-0.000009,0.000011,0.000011,0.999997,-0.001751,0.001352,0.000708,-0.200595,0.155026,0.080849,0.999995,0.001411,-0.002706,-0.001421,0.999993,-0.003501,0.002701,0.003505,0.999990
30899,2,0,-66.0000,3.448494,0.388238,9.182949,0.021673,-0.015758,0.004067,0.000886,0.002182,0.003660,-0.508184,0.389603,-1.114991,0.034486,0.003883,0.091829,1.000000,0.000004,0.000011,0.000018,0.999997,-0.001756,0.001333,0.000744,-0.201061,0.152910,0.084961,0.999995,0.001483,-0.002669,-0.001492,0.999993,-0.003509,0.002664,0.003513,0.999990
30900,2,0,-66.0000,3.448449,0.388174,9.182968,0.021137,-0.015777,0.004068,-0.001486,-0.001107,-0.001555,-0.496024,0.382067,-1.116812,0.034484,0.003882,0.091830,1.000000,-0.000007,-0.000006,-0.000008,0.999997,-0.001759,0.001301,0.000723,-0.201437,0.149187,0.082547,0.999996,0.001441,-0.002604,-0.001450,0.999993,-0.003516,0.002599,0.003519,0.999990
30901,2,0,-66.0000,3.447647,0.437024,9.184579,0.018420,0.032845,0.007310,0.002457,0.002238,0.001040,-0.504351,0.391218,-1.116863,0.034477,0.004369,0.091845,1.000000,0.000012,0.000011,0.000005,0.999997,-0.001747,0.001282,0.000703,-0.200058,0.147080,0.080256,0.999996,0.001401,-0.002567,-0.001410,0.999993,-0.003492,0.002562,0.003495,0.999991
30902,2,0,-66.0000,3.416317,0.386391,9.227561,-0.025113,-0.019857,0.034515,-0.000436,0.006688,-0.001437,-0.499449,0.388512,-1.114637,0.034166,0.003864,0.092274,1.000000,-0.000002,0.000033,-0.000007,0.999997,-0.001746,0.001289,0.000686,-0.199968,0.147816,0.078302,0.999996,0.001367,-0.002580,-0.001376,0.999993,-0.003490,0.002575,0.003494,0.999991
30903,2,0,-66.0000,3.436566,0.435929,9.217927,-0.003652,0.030081,0.034611,0.001711,0.005542,0.002667,-0.493141,0.388558,-1.107825,0.034368,0.004359,0.092178,1.000000,0.000009,0.000028,0.000013,0.999997,-0.001743,0.001287,0.000696,-0.199601,0.147561,0.079459,0.999996,0.001387,-0.002575,-0.001396,0.999993,-0.003484,0.002571,0.003487,0.999991
30904,2,0,-66.0000,3.413166,0.437062,9.174997,-0.010620,0.032997,-0.013703,0.001195,0.005566,0.000597,-0.501522,0.391229,-1.116061,0.034134,0.004370,0.091749,1.000000,0.000006,0.000028,0.000003,0.999997,-0.001738,0.001287,0.000691,-0.199031,0.147604,0.078897,0.999996,0.001377,-0.002576,-0.001386,0.999993,-0.003474,0.002571,0.003477,0.999991
30905,2,0,-66.0000,3.434121,0.437646,9.163797,0.013014,0.034273,-0.016843,-0.003123,0.007730,0.001220,-0.496235,0.384669,-1.120414,0.034345,0.004378,0.091637,1.000000,-0.000016,0.000039,0.000006,0.999997,-0.001755,0.001297,0.000693,-0.201059,0.148815,0.079135,0.999996,0.001381,-0.002597,-0.001390,0.999993,-0.003509,0.002592,0.003513,0.999990
30906,2,0,-66.0000,3.456782,0.411966,9.206355,0.019974,0.006984,0.029852,-0.000891,0.005533,0.001148,-0.498129,0.391962,-1.120231,0.034570,0.004120,0.092063,1.000000,-0.000004,0.000028,0.000006,0.999997,-0.001761,0.001298,0.000687,-0.201719,0.148824,0.078447,0.999996,0.001369,-0.002597,-0.001378,0.999993,-0.003521,0.002593,0.003524,0.999990
30907,2,0,-66.0000,3.433281,0.412916,9.163471,0.013050,0.009874,-0.018462,-0.001552,0.007786,-0.001400,-0.493430,0.394144,-1.112610,0.034336,0.004130,0.091633,1.000000,-0.000008,0.000039,-0.000007,0.999997,-0.001764,0.001311,0.000671,-0.202093,0.150396,0.076619,0.999996,0.001337,-0.002625,-0.001347,0.999993,-0.003527,0.002620,0.003531,0.999990
30908,2,0,-66.0000,3.422928,0.387166,9.195893,-0.007385,-0.017218,0.007212,-0.000376,0.005509,0.003218,-0.505508,0.388989,-1.122111,0.034232,0.003872,0.091958,1.000000,-0.000002,0.000028,0.000016,0.999997,-0.001771,0.001311,0.000676,-0.202890,0.150339,0.077143,0.999996,0.001346,-0.002624,-0.001356,0.999993,-0.003541,0.002619,0.003545,0.999990
30909,2,0,-66.0000,3.433342,0.411050,9.218493,-0.005787,0.005653,0.032989,0.002537,0.008902,0.001675,-0.497970,0.395398,-1.109552,0.034337,0.004110,0.092183,1.000000,0.000013,0.000045,0.000008,0.999997,-0.001763,0.001327,0.000695,-0.201962,0.152225,0.079391,0.999996,0.001386,-0.002657,-0.001395,0.999993,-0.003525,0.002652,0.003529,0.999990
30910,2,0,-66.0000,3.409948,0.412408,9.175548,-0.012740,0.008570,-0.015327,0.004029,0.002294,-0.001579,-0.502612,0.394841,-1.115242,0.034101,0.004122,0.091755,1.000000,0.000020,0.000011,-0.000008,0.999997,-0.001741,0.001312,0.000684,-0.199405,0.150453,0.078156,0.999996,0.001364,-0.002626,-0.001373,0.999993,-0.003480,0.002621,0.003484,0.999990
30911,2,0,-66.0000,3.399459,0.411634,9.208648,-0.034290,0.005887,0.011962,0.005884,0.005606,0.001568,-0.496955,0.395050,-1.117805,0.033997,0.004114,0.092086,1.000000,0.000029,0.000028,0.000008,0.999997,-0.001720,0.001310,0.000726,-0.196941,0.150249,0.082919,0.999996,0.001447,-0.002622,-0.001456,0.999993,-0.003437,0.002617,0.003441,0.999991
30912,2,0,-66.0000,3.420346,0.437125,9.198114,-0.011716,0.031477,0.010450,0.003573,0.001139,0.001006,-0.499853,0.387084,-1.115645,0.034204,0.004370,0.091981,1.000000,0.000018,0.000006,0.000005,0.999997,-0.001704,0.001288,0.000726,-0.195135,0.147750,0.082950,0.999996,0.001448,-0.002579,-0.001457,0.999993,-0.003406,0.002574,0.003409,0.999991
30913,2,0,-66.0000,3.431790,0.436786,9.219666,-0.009047,0.030006,0.034608,0.001631,-0.001122,0.002034,-0.495242,0.390487,-1.124444,0.034317,0.004367,0.092197,1.000000,0.000008,-0.000006,0.000010,0.999997,-0.001699,0.001255,0.000742,-0.194642,0.143941,0.084780,0.999996,0.001480,-0.002512,-0.001488,0.999993,-0.003397,0.002507,0.003401,0.999991
30914,2,0,-66.0000,3.442089,0.438027,9.186616,0.011394,0.032725,0.007321,0.001175,-0.002277,0.004619,-0.496539,0.388872,-1.116136,0.034420,0.004381,0.091867,1.000000,0.000006,-0.000011,0.000023,0.999998,-0.001701,0.001215,0.000754,-0.194812,0.139393,0.086183,0.999996,0.001504,-0.002433,-0.001512,0.999993,-0.003400,0.002428,0.003404,0.999991
30915,2,0,-66.0000,3.443261,0.389188,9.184872,0.013042,-0.015980,0.004082,0.000950,-0.006711,0.003506,-0.497748,0.392588,-1.112223,0.034429,0.003892,0.091850,1.000000,0.000005,-0.000034,0.000018,0.999998,-0.001700,0.001156,0.000770,-0.194758,0.132611,0.088012,0.999996,0.001536,-0.002315,-0.001544,0.999993,-0.003399,0.002309,0.003403,0.999992
30916,2,0,-66.0000,3.388534,0.437124,9.187526,-0.041190,0.031605,-0.010586,0.002436,-0.005604,0.005062,-0.498253,0.388826,-1.115738,0.033883,0.004371,0.091876,1.000000,0.000012,-0.000028,0.000025,0.999998,-0.001697,0.001100,0.000786,-0.194309,0.126148,0.089829,0.999996,0.001568,-0.002202,-0.001575,0.999993,-0.003391,0.002196,0.003395,0.999992
30917,2,0,-66.0000,3.434027,0.412401,9.218178,-0.010084,0.005603,0.032986,0.000065,-0.008893,-0.000155,-0.496871,0.389650,-1.111782,0.034336,0.004124,0.092183,1.000000,0.000000,-0.000044,-0.000001,0.999998,-0.001695,0.001028,0.000785,-0.194170,0.117913,0.089778,0.999997,0.001567,-0.002058,-0.001574,0.999993,-0.003389,0.002053,0.003392,0.999992
30918,2,0,-66.0000,3.423602,0.413053,9.196233,-0.013818,0.007053,0.008826,0.001926,-0.013296,-0.001816,-0.500836,0.381057,-1.117888,0.034230,0.004129,0.091965,1.000000,0.000010,-0.000066,-0.000009,0.999998,-0.001681,0.000934,0.000766,-0.192544,0.107222,0.087624,0.999997,0.001529,-0.001871,-0.001536,0.999993,-0.003361,0.001866,0.003363,0.999993
30919,2,0,-66.0000,3.436641,0.388450,9.216530,-0.010093,-0.018805,0.031365,0.005044,-0.013312,0.001774,-0.495977,0.388188,-1.122488,0.034360,0.003882,0.092168,1.000000,0.000025,-0.000067,0.000009,0.999998,-0.001657,0.000840,0.000754,-0.189755,0.096429,0.086226,0.999997,0.001505,-0.001683,-0.001510,0.999993,-0.003312,0.001678,0.003314,0.999993
30920,2,0,-66.0000,3.426468,0.389548,9.194474,-0.013825,-0.017355,0.007205,0.007731,-0.014355,-0.000881,-0.499498,0.393180,-1.115200,0.034258,0.003892,0.091947,1.000000,0.000039,-0.000072,-0.000004,0.999998,-0.001617,0.000742,0.000749,-0.185190,0.085112,0.085717,0.999998,0.001496,-0.001485,-0.001501,0.999994,-0.003232,0.001481,0.003234,0.999994
30921,2,0,-66.0000,3.449023,0.415434,9.183280,0.008785,0.008232,0.005705,0.008848,-0.015454,-0.000915,-0.494476,0.388815,-1.119542,0.034483,0.004150,0.091836,1.000000,0.000044,-0.000077,-0.000005,0.999998,-0.001571,0.000639,0.000761,-0.180018,0.073346,0.087084,0.999998,0.001520,-0.001280,-0.001524,0.999994,-0.003142,0.001275,0.003144,0.999994
30922,2,0,-66.0000,3.461372,0.440106,9.205108,0.010375,0.031082,0.031485,0.007587,-0.012126,-0.001358,-0.504300,0.388478,-1.121161,0.034608,0.004397,0.092053,1.000000,0.000038,-0.000061,-0.000007,0.999998,-0.001532,0.000551,0.000754,-0.175456,0.063318,0.086342,0.999998,0.001507,-0.001105,-0.001510,0.999994,-0.003062,0.001100,0.003064,0.999995
30923,2,0,-66.0000,3.450817,0.441374,9.183181,0.006674,0.032511,0.007326,0.007296,-0.007668,-0.002317,-0.502948,0.395955,-1.112961,0.034505,0.004410,0.091833,1.000000,0.000036,-0.000038,-0.000012,0.999998,-0.001491,0.000488,0.000747,-0.170776,0.056020,0.085563,0.999998,0.001493,-0.000978,-0.001496,0.999994,-0.002981,0.000973,0.002982,0.999995
30924,2,0,-66.0000,3.463354,0.417078,9.203654,0.010393,0.006687,0.029867,0.006242,-0.007746,0.002374,-0.496991,0.380105,-1.117014,0.034630,0.004168,0.092038,1.000000,0.000031,-0.000039,0.000012,0.999999,-0.001464,0.000421,0.000757,-0.167727,0.048401,0.086653,0.999998,0.001512,-0.000845,-0.001515,0.999995,-0.002927,0.000840,0.002929,0.999995
30925,2,0,-66.0000,3.462748,0.419266,9.148798,0.027661,0.010863,-0.021567,0.004239,-0.008831,-0.001250,-0.499495,0.387710,-1.113128,0.034623,0.004190,0.091490,1.000000,0.000021,-0.000044,-0.000006,0.999999,-0.001440,0.000350,0.000746,-0.164975,0.040248,0.085484,0.999999,0.001492,-0.000702,-0.001494,0.999995,-0.002879,0.000698,0.002880,0.999996
30926,2,0,-66.0000,3.453278,0.418445,9.181544,0.006131,0.008111,0.005707,0.006013,-0.004465,0.006069,-0.501461,0.387478,-1.114140,0.034531,0.004183,0.091816,1.000000,0.000030,-0.000022,0.000030,0.999999,-0.001421,0.000299,0.000773,-0.162824,0.034412,0.088585,0.999999,0.001546,-0.000601,-0.001548,0.999995,-0.002842,0.000596,0.002843,0.999996
30927,2,0,-66.0000,3.453438,0.443010,9.182117,0.004523,0.032424,0.007327,0.000436,-0.006688,0.001442,-0.503907,0.383146,-1.111103,0.034531,0.004430,0.091822,1.000000,0.000002,-0.000033,0.000007,0.999999,-0.001420,0.000238,0.000768,-0.162680,0.027367,0.087917,0.999999,0.001534,-0.000478,-0.001536,0.999995,-0.002839,0.000473,0.002840,0.999996
30928,2,0,-66.0000,3.454280,0.418434,9.181168,0.005051,0.008069,0.005708,-0.002395,-0.003415,0.003617,-0.500346,0.392053,-1.106699,0.034541,0.004186,0.091812,1.000000,-0.000012,-0.000017,0.000018,0.999999,-0.001436,0.000193,0.000769,-0.164557,0.022190,0.088035,0.999999,0.001536,-0.000387,-0.001538,0.999995,-0.002872,0.000383,0.002873,0.999996
30929,2,0,-66.0000,3.454139,0.442489,9.181878,0.003409,0.032398,0.007328,-0.002541,-0.001186,0.003137,-0.499289,0.385969,-1.117840,0.034541,0.004427,0.091819,1.000000,-0.000013,-0.000006,0.000016,0.999999,-0.001453,0.000156,0.000765,-0.166499,0.018048,0.087620,0.999999,0.001529,-0.000315,-0.001530,0.999995,-0.002906,0.000311,0.002906,0.999996
30930,2,0,-66.0000,3.454789,0.417682,9.181010,0.003936,0.008042,0.005708,-0.002850,-0.004569,0.006203,-0.502164,0.382289,-1.124069,0.034546,0.004179,0.091811,1.000000,-0.000014,-0.000023,0.000031,0.999999,-0.001476,0.000105,0.000777,-0.169128,0.012144,0.089005,0.999999,0.001553,-0.000212,-0.001554,0.999994,-0.002952,0.000207,0.002952,0.999996
30931,2,0,-66.0000,3.444643,0.440430,9.214698,-0.018634,0.029566,0.034595,-0.000991,-0.001256,0.009347,-0.500432,0.391009,-1.116185,0.034446,0.004406,0.092147,1.000000,-0.000005,-0.000006,0.000047,0.999999,-0.001493,0.000071,0.000790,-0.171053,0.008229,0.090503,0.999999,0.001580,-0.000144,-0.001580,0.999994,-0.002985,0.000139,0.002986,0.999996
30932,2,0,-66.0000,3.455482,0.392368,9.180146,0.003955,-0.016396,0.004089,-0.005289,0.001036,0.001137,-0.508395,0.388721,-1.117205,0.034555,0.003926,0.091801,1.000000,-0.000026,0.000005,0.000006,0.999999,-0.001519,0.000048,0.000775,-0.174025,0.005662,0.088815,0.999999,0.001550,-0.000099,-0.001550,0.999994,-0.003037,0.000094,0.003037,0.999995
30933,2,0,-66.0000,3.476636,0.416968,9.169510,0.026515,0.009186,0.002606,-0.003657,-0.000087,0.003172,-0.508050,0.388151,-1.109793,0.034766,0.004172,0.091695,1.000000,-0.000018,-0.000000,0.000016,0.999999,-0.001541,0.000018,0.000778,-0.176543,0.002243,0.089143,0.999999,0.001556,-0.000039,-0.001556,0.999994,-0.003081,0.000034,0.003081,0.999995
30934,2,0,-66.0000,3.455227,0.415799,9.180931,0.001796,0.007908,0.005709,-0.001962,-0.002387,0.009864,-0.500572,0.392425,-1.115120,0.034551,0.004161,0.091810,1.000000,-0.000010,-0.000012,0.000049,0.999998,-0.001566,-0.000023,0.000809,-0.179454,-0.002505,0.092720,0.999999,0.001618,0.000044,-0.001618,0.999994,-0.003132,-0.000049,0.003132,0.999995
30935,2,0,-66.0000,3.454976,0.439627,9.181701,0.000157,0.032246,0.007329,-0.003223,0.000942,0.009419,-0.501789,0.388105,-1.111881,0.034550,0.004399,0.091817,1.000000,-0.000016,0.000005,0.000047,0.999998,-0.001598,-0.000050,0.000844,-0.183101,-0.005587,0.096682,0.999999,0.001687,0.000098,-0.001687,0.999993,-0.003196,-0.000103,0.003196,0.999995
30936,2,0,-66.0000,3.466694,0.413947,9.202538,0.003854,0.006420,0.029872,-0.007458,0.002056,0.005865,-0.506037,0.385887,-1.113069,0.034668,0.004144,0.092025,1.000000,-0.000037,0.000010,0.000029,0.999998,-0.001642,-0.000069,0.000847,-0.188198,-0.007693,0.097115,0.999999,0.001695,0.000134,-0.001695,0.999993,-0.003285,-0.000140,0.003284,0.999995
30937,2,0,-66.0000,3.443512,0.413975,9.159584,-0.003060,0.009329,-0.018453,-0.008140,0.004183,0.012148,-0.506706,0.391879,-1.116148,0.034437,0.004146,0.091595,1.000000,-0.000041,0.000021,0.000061,0.999998,-0.001701,-0.000080,0.000871,-0.194874,-0.008945,0.099805,0.999998,0.001742,0.000156,-0.001741,0.999993,-0.003401,-0.000162,0.003401,0.999994
30938,2,0,-66.0000,3.466500,0.387425,9.202050,0.003803,-0.017967,0.028253,-0.008057,0.003132,0.007972,-0.506693,0.391241,-1.118264,0.034666,0.003879,0.092020,1.000000,-0.000040,0.000016,0.000040,0.999998,-0.001752,-0.000093,0.000884,-0.200727,-0.010489,0.101273,0.999998,0.001768,0.000183,-0.001767,0.999992,-0.003503,-0.000189,0.003503,0.999994
30939,2,0,-66.0000,3.444007,0.434396,9.215222,-0.023076,0.029442,0.034586,-0.009110,0.003052,0.012666,-0.502115,0.397442,-1.113094,0.034441,0.004350,0.092151,1.000000,-0.000046,0.000015,0.000063,0.999998,-0.001816,-0.000110,0.000924,-0.208154,-0.012438,0.105927,0.999998,0.001849,0.000217,-0.001848,0.999992,-0.003633,-0.000224,0.003633,0.999993
30940,2,0,-66.0000,3.442299,0.434783,9.160865,-0.005762,0.033622,-0.016834,-0.011857,0.005274,0.010668,-0.503932,0.393226,-1.112425,0.034425,0.004355,0.091607,1.000000,-0.000059,0.000026,0.000053,0.999998,-0.001890,-0.000114,0.000943,-0.216609,-0.012827,0.108123,0.999998,0.001887,0.000224,-0.001886,0.999991,-0.003781,-0.000231,0.003780,0.999993
30941,2,0,-66.0000,3.464394,0.456392,9.205024,-0.001053,0.055052,0.033111,-0.017662,0.006335,0.009738,-0.506862,0.397569,-1.112261,0.034647,0.004574,0.092049,1.000000,-0.000088,0.000032,0.000049,0.999998,-0.001992,-0.000113,0.000976,-0.228309,-0.012748,0.111851,0.999998,0.001952,0.000222,-0.001951,0.999990,-0.003985,-0.000230,0.003984,0.999992
30942,2,0,-66.0000,3.452419,0.454625,9.183782,-0.004753,0.056504,0.008948,-0.022371,0.006167,0.017609,-0.506927,0.391298,-1.114171,0.034527,0.004560,0.091836,1.000000,-0.000112,0.000031,0.000088,0.999997,-0.002128,-0.000114,0.001009,-0.243809,-0.012808,0.115669,0.999998,0.002019,0.000224,-0.002018,0.999989,-0.004255,-0.000232,0.004255,0.999991
30943,2,0,-66.0000,3.495839,0.475322,9.216679,0.024103,0.079178,0.055805,-0.033172,0.011518,0.023594,-0.498734,0.388640,-1.117234,0.034963,0.004773,0.092164,1.000000,-0.000166,0.000058,0.000118,0.999997,-0.002326,-0.000092,0.001070,-0.266587,-0.010305,0.122583,0.999998,0.002139,0.000180,-0.002139,0.999987,-0.004653,-0.000190,0.004652,0.999989
30944,2,0,-66.0000,3.438216,0.520739,9.165722,-0.012220,0.130987,-0.010359,-0.043745,0.013590,0.025888,-0.501216,0.388245,-1.114792,0.034388,0.005232,0.091654,1.000000,-0.000219,0.000068,0.000129,0.999996,-0.002577,-0.000058,0.001106,-0.295289,-0.006339,0.126699,0.999998,0.002211,0.000111,-0.002211,0.999984,-0.005154,-0.000122,0.005153,0.999987
30945,2,0,-66.0000,3.470944,0.442361,9.174116,0.017788,0.057707,0.005861,-0.050742,0.016796,0.029191,-0.496752,0.392936,-1.114181,0.034716,0.004452,0.091737,1.000000,-0.000254,0.000084,0.000146,0.999995,-0.002864,-0.000008,0.001137,-0.328231,-0.000500,0.130313,0.999997,0.002274,0.000009,-0.002274,0.999981,-0.005729,-0.000022,0.005729,0.999984
30946,2,0,-66.0000,3.460310,0.362390,9.205399,-0.000604,-0.018051,0.028253,-0.047680,0.017953,0.028140,-0.503204,0.392716,-1.117139,0.034611,0.003651,0.092050,1.000000,-0.000238,0.000090,0.000141,0.999994,-0.003138,0.000048,0.001178,-0.359537,0.005909,0.134936,0.999997,0.002355,-0.000103,-0.002356,0.999978,-0.006275,0.000088,0.006275,0.999980
30947,2,0,-66.0000,3.447355,0.357911,9.184609,-0.004283,-0.016607,0.004089,-0.042906,0.016938,0.024939,-0.501414,0.394631,-1.110102,0.034481,0.003603,0.091842,1.000000,-0.000215,0.000085,0.000125,0.999994,-0.003382,0.000100,0.001217,-0.387580,0.011917,0.139464,0.999997,0.002434,-0.000208,-0.002435,0.999974,-0.006764,0.000192,0.006765,0.999977
30948,2,0,-66.0000,3.470320,0.255094,9.224860,0.005716,-0.116917,0.045940,-0.027792,0.009419,0.018319,-0.503229,0.400021,-1.127481,0.034707,0.002567,0.092247,1.000000,-0.000139,0.000047,0.000092,0.999993,-0.003545,0.000115,0.001245,-0.406160,0.013705,0.142641,0.999997,0.002490,-0.000239,-0.002491,0.999972,-0.007089,0.000222,0.007089,0.999975
30949,2,0,-66.0000,3.467510,0.303322,9.172456,0.020948,-0.064054,-0.002232,-0.015335,0.010790,0.010341,-0.498319,0.392727,-1.115564,0.034680,0.003042,0.091722,1.000000,-0.000077,0.000054,0.000052,0.999993,-0.003635,0.000139,0.001276,-0.416533,0.016513,0.146202,0.999997,0.002552,-0.000288,-0.002554,0.999970,-0.007270,0.000270,0.007271,0.999974
30950,2,0,-66.0000,3.423516,0.325144,9.196423,-0.029019,-0.042245,0.005548,-0.004853,0.002052,0.007403,-0.508472,0.402064,-1.120469,0.034236,0.003255,0.091964,1.000000,-0.000024,0.000010,0.000037,0.999992,-0.003670,0.000121,0.001292,-0.420542,0.014374,0.147993,0.999997,0.002583,-0.000251,-0.002585,0.999970,-0.007340,0.000232,0.007340,0.999973
30951,2,0,-66.0000,3.466582,0.325899,9.173625,0.018810,-0.039744,-0.000610,-0.003141,-0.000119,0.005253,-0.497852,0.394075,-1.118192,0.034666,0.003261,0.091736,1.000000,-0.000016,-0.000001,0.000026,0.999992,-0.003694,0.000091,0.001315,-0.423239,0.010998,0.150699,0.999997,0.002630,-0.000192,-0.002632,0.999969,-0.007387,0.000173,0.007387,0.999973
30952,2,0,-66.0000,3.466004,0.374457,9.175368,0.016160,0.008911,0.002629,0.000000,0.000000,0.000000,-0.501456,0.396883,-1.105825,0.034660,0.003745,0.091754,1.000000,0.000000,0.000000,0.000000,0.999992,-0.003694,0.000091,0.001315,-0.423239,0.010998,0.150699,0.999997,0.002630,-0.000192,-0.002632,0.999969,-0.007387,0.000173,0.007387,0.999973
30953,2,0,-66.0000,3.477290,0.373870,9.196983,0.019313,0.007450,0.026794,0.001346,0.003333,0.001082,-0.502920,0.392413,-1.110259,0.034774,0.003738,0.091969,1.000000,0.000007,0.000017,0.000005,0.999992,-0.003689,0.000080,0.001322,-0.422722,0.009760,0.151481,0.999996,0.002644,-0.000170,-0.002645,0.999969,-0.007378,0.000151,0.007378,0.999973
30954,2,0,-66.0000,3.454880,0.422133,9.210233,-0.007524,0.054851,0.033110,0.002460,0.002233,0.001043,-0.503518,0.392704,-1.116996,0.034550,0.004220,0.092102,1.000000,0.000012,0.000011,0.000005,0.999992,-0.003679,0.000064,0.001321,-0.421530,0.007885,0.151342,0.999997,0.002641,-0.000138,-0.002642,0.999969,-0.007357,0.000118,0.007357,0.999973
30955,2,0,-66.0000,3.465112,0.398909,9.176460,0.014013,0.033201,0.004250,-0.003798,0.002140,0.002705,-0.497194,0.396907,-1.110228,0.034652,0.003991,0.091764,1.000000,-0.000019,0.000011,0.000014,0.999992,-0.003699,0.000046,0.001309,-0.423921,0.005786,0.150036,0.999997,0.002619,-0.000101,-0.002619,0.999969,-0.007399,0.000082,0.007399,0.999973
30956,2,0,-66.0000,3.455049,0.372694,9.208678,-0.006509,0.006120,0.029871,-0.003881,0.003183,0.006889,-0.498736,0.395328,-1.113760,0.034552,0.003730,0.092086,1.000000,-0.000019,0.000016,0.000034,0.999992,-0.003729,0.000033,0.001325,-0.427316,0.004308,0.151773,0.999996,0.002649,-0.000075,-0.002649,0.999969,-0.007458,0.000055,0.007458,0.999972
30957,2,0,-66.0000,3.421738,0.396522,9.199436,-0.035418,0.030670,0.010395,-0.002999,-0.002349,0.005728,-0.504199,0.391751,-1.106857,0.034216,0.003968,0.091995,1.000000,-0.000015,-0.000012,0.000029,0.999992,-0.003753,-0.000007,0.001349,-0.430030,-0.000206,0.154534,0.999996,0.002697,0.000004,-0.002697,0.999968,-0.007505,-0.000024,0.007505,0.999972
30958,2,0,-66.0000,3.476630,0.372261,9.197298,0.016620,0.007348,0.026799,-0.005884,0.002109,0.003259,-0.497020,0.395561,-1.118325,0.034767,0.003726,0.091973,1.000000,-0.000029,0.000011,0.000016,0.999992,-0.003785,-0.000024,0.001343,-0.433759,-0.002216,0.153900,0.999996,0.002686,0.000039,-0.002686,0.999968,-0.007570,-0.000059,0.007570,0.999971
30959,2,0,-66.0000,3.455085,0.371043,9.208732,-0.008107,0.006066,0.029869,-0.003515,-0.002321,0.003656,-0.500199,0.396084,-1.120277,0.034550,0.003713,0.092088,1.000000,-0.000018,-0.000012,0.000018,0.999992,-0.003806,-0.000064,0.001342,-0.436197,-0.006773,0.153808,0.999996,0.002684,0.000118,-0.002683,0.999967,-0.007613,-0.000139,0.007613,0.999971
30960,2,0,-66.0000,3.455547,0.346355,9.207805,-0.007591,-0.018290,0.028250,-0.000457,-0.001159,0.002587,-0.506371,0.397546,-1.117038,0.034555,0.003464,0.092078,1.000000,-0.000002,-0.000006,0.000013,0.999992,-0.003812,-0.000098,0.001342,-0.436848,-0.010631,0.153838,0.999996,0.002685,0.000186,-0.002683,0.999967,-0.007624,-0.000206,0.007624,0.999971
30961,2,0,-67.0000,3.410797,0.395677,9.177756,-0.040704,0.032056,-0.013779,0.000798,-0.004489,0.003023,-0.497813,0.400067,-1.115521,0.034106,0.003957,0.091778,1.000000,0.000004,-0.000022,0.000015,0.999992,-0.003812,-0.000148,0.001357,-0.436869,-0.016398,0.155534,0.999996,0.002715,0.000286,-0.002712,0.999967,-0.007625,-0.000307,0.007624,0.999971
30962,2,0,-66.0000,3.477913,0.346999,9.196083,0.015522,-0.017080,0.025183,0.003541,-0.006718,0.005017,-0.497649,0.400578,-1.115956,0.034776,0.003469,0.091962,1.000000,0.000018,-0.000034,0.000025,0.999992,-0.003803,-0.000210,0.001374,-0.435813,-0.023489,0.157554,0.999996,0.002750,0.000410,-0.002747,0.999967,-0.007606,-0.000431,0.007605,0.999971
30963,2,0,-66.0000,3.466910,0.372417,9.175108,0.010829,0.008743,0.002636,0.006823,-0.008830,0.000240,-0.502352,0.391055,-1.112465,0.034665,0.003721,0.091753,1.000000,0.000034,-0.000044,0.000001,0.999992,-0.003771,-0.000280,0.001406,-0.432202,-0.031457,0.161223,0.999996,0.002814,0.000549,-0.002810,0.999968,-0.007543,-0.000570,0.007542,0.999971
30964,2,0,-67.0000,3.435308,0.419608,9.220996,-0.037057,0.053424,0.036168,0.001396,-0.005561,0.000912,-0.504637,0.396281,-1.115407,0.034351,0.004196,0.092211,1.000000,0.000007,-0.000028,0.000005,0.999992,-0.003765,-0.000335,0.001401,-0.431480,-0.037792,0.160635,0.999996,0.002804,0.000660,-0.002799,0.999968,-0.007531,-0.000681,0.007529,0.999971
30965,2,0,-66.0000,3.479783,0.372389,9.196100,0.012877,0.007217,0.026805,0.004879,-0.011091,0.001271,-0.503905,0.388652,-1.119437,0.034793,0.003722,0.091963,1.000000,0.000024,-0.000055,0.000006,0.999992,-0.003742,-0.000419,0.001399,-0.428823,-0.047380,0.160472,0.999996,0.002801,0.000827,-0.002794,0.999968,-0.007484,-0.000848,0.007482,0.999972
30966,2,0,-67.0000,3.478888,0.399019,9.142145,0.029209,0.035730,-0.022970,0.002369,-0.004430,0.000398,-0.502113,0.389198,-1.120042,0.034787,0.003989,0.091422,1.000000,0.000012,-0.000022,0.000002,0.999992,-0.003730,-0.000468,0.001393,-0.427487,-0.053056,0.159828,0.999996,0.002790,0.000926,-0.002783,0.999968,-0.007461,-0.000947,0.007458,0.999972
30967,2,0,-67.0000,3.469855,0.349027,9.173193,0.009740,-0.015759,0.001019,0.000424,-0.006691,0.001428,-0.495990,0.394052,-1.122454,0.034695,0.003490,0.091733,1.000000,0.000002,-0.000033,0.000007,0.999992,-0.003725,-0.000528,0.001365,-0.426963,-0.059940,0.156649,0.999996,0.002734,0.001046,-0.002726,0.999969,-0.007452,-0.001066,0.007449,0.999972
30968,2,0,-67.0000,3.491031,0.422805,9.164195,0.030240,0.058482,0.002820,-0.000315,-0.003390,0.003064,-0.509798,0.396837,-1.107918,0.034909,0.004229,0.091643,1.000000,-0.000002,-0.000017,0.000015,0.999992,-0.003731,-0.000573,0.001367,-0.427613,-0.065086,0.156915,0.999996,0.002739,0.001136,-0.002730,0.999968,-0.007463,-0.001156,0.007460,0.999972
30969,2,0,-67.0000,3.448292,0.421179,9.186927,-0.018676,0.055964,0.008934,-0.002856,-0.004579,0.006207,-0.505880,0.389753,-1.106546,0.034481,0.004214,0.091870,1.000000,-0.000014,-0.000023,0.000031,0.999992,-0.003754,-0.000625,0.001386,-0.430229,-0.070989,0.159073,0.999995,0.002776,0.001239,-0.002767,0.999968,-0.007509,-0.001260,0.007505,0.999971
30970,2,0,-68.0000,3.480871,0.373876,9.140660,0.028141,0.011237,-0.024583,-0.003514,-0.002320,0.003658,-0.507032,0.390148,-1.104870,0.034808,0.003741,0.091407,1.000000,-0.000018,-0.000012,0.000018,0.999992,-0.003775,-0.000664,0.001385,-0.432725,-0.075541,0.159036,0.999995,0.002776,0.001318,-0.002766,0.999968,-0.007552,-0.001339,0.007549,0.999971
30971,2,0,-68.0000,3.482436,0.371588,9.195129,0.009607,0.007005,0.026809,-0.000912,-0.002318,0.005176,-0.502821,0.391786,-1.112604,0.034823,0.003717,0.091952,1.000000,-0.000005,-0.000012,0.000026,0.999992,-0.003787,-0.000708,0.001376,-0.434023,-0.080491,0.157941,0.999995,0.002757,0.001405,-0.002746,0.999968,-0.007575,-0.001426,0.007571,0.999970
30972,2,0,-68.0000,3.449612,0.371042,9.184959,-0.018247,0.007213,0.005693,-0.006197,-0.001279,0.006326,-0.499612,0.396711,-1.117674,0.034495,0.003714,0.091850,1.000000,-0.000031,-0.000006,0.000032,0.999991,-0.003826,-0.000743,0.001383,-0.438505,-0.084513,0.158815,0.999995,0.002772,0.001475,-0.002760,0.999967,-0.007653,-0.001496,0.007649,0.999970
30973,2,0,-68.0000,3.471075,0.395583,9.174351,0.004379,0.032760,0.004261,-0.001428,-0.002290,0.003104,-0.507542,0.392379,-1.116698,0.034710,0.003957,0.091744,1.000000,-0.000007,-0.000011,0.000016,0.999991,-0.003836,-0.000781,0.001387,-0.439676,-0.088918,0.159225,0.999995,0.002779,0.001552,-0.002767,0.999967,-0.007674,-0.001573,0.007669,0.999969
30974,2,0,-68.0000,3.483403,0.345920,9.194046,0.009060,-0.017408,0.025191,-0.001803,-0.004492,0.001508,-0.495933,0.393226,-1.109419,0.034832,0.003460,0.091941,1.000000,-0.000009,-0.000022,0.000008,0.999991,-0.003846,-0.000831,0.001379,-0.440799,-0.094661,0.158334,0.999995,0.002763,0.001652,-0.002751,0.999967,-0.007693,-0.001673,0.007689,0.999969
30975,2,0,-68.0000,3.493030,0.395709,9.162789,0.027507,0.033943,0.001213,-0.001791,0.003214,0.006337,-0.509753,0.389021,-1.108039,0.034932,0.003959,0.091627,1.000000,-0.000009,0.000016,0.000032,0.999991,-0.003863,-0.000844,0.001391,-0.442837,-0.096051,0.159747,0.999995,0.002788,0.001676,-0.002775,0.999966,-0.007729,-0.001698,0.007724,0.999969
30976,262146,0,-68.0000,3.492852,0.395347,9.162873,0.026971,0.033922,0.001215,-0.002683,0.001041,0.002667,-0.505606,0.397522,-1.110746,0.034929,0.003955,0.091628,1.000000,-0.000013,0.000005,0.000013,0.999991,-0.003880,-0.000866,0.001388,-0.444719,-0.098655,0.159418,0.999995,0.002782,0.001722,-0.002769,0.999966,-0.007762,-0.001743,0.007757,0.999968
30977,2,0,-68.0000,3.471387,0.369841,9.173520,0.003236,0.008316,0.002642,-0.004393,0.003212,0.004819,-0.499740,0.386851,-1.110392,0.034715,0.003701,0.091735,1.000000,-0.000022,0.000016,0.000024,0.999991,-0.003908,-0.000881,0.001384,-0.447942,-0.100384,0.158987,0.999995,0.002775,0.001752,-0.002761,0.999966,-0.007818,-0.001774,0.007813,0.999968
30978,2,0,-68.0000,3.471053,0.369336,9.173667,0.002699,0.008297,0.002642,-0.003937,0.004372,0.002231,-0.507997,0.395339,-1.112017,0.034712,0.003696,0.091736,1.000000,-0.000020,0.000022,0.000011,0.999991,-0.003930,-0.000887,0.001377,-0.450440,-0.101073,0.158242,0.999995,0.002762,0.001764,-0.002748,0.999965,-0.007862,-0.001786,0.007857,0.999968
30979,2,0,-68.0000,3.470660,0.368897,9.173833,0.002150,0.008246,0.002643,-0.003937,0.004372,0.002231,-0.502901,0.395294,-1.120027,0.034709,0.003691,0.091737,1.000000,-0.000020,0.000022,0.000011,0.999991,-0.003950,-0.000894,0.001358,-0.452758,-0.101835,0.155985,0.999995,0.002722,0.001777,-0.002708,0.999965,-0.007902,-0.001799,0.007897,0.999967
30980,2,0,-66.0000,3.470222,0.368791,9.174003,0.001614,0.008226,0.002643,0.004841,0.005505,0.006270,-0.506054,0.398870,-1.113718,0.034705,0.003687,0.091739,1.000000,0.000024,0.000028,0.000031,0.999991,-0.003938,-0.000895,0.001386,-0.451379,-0.101955,0.159197,0.999995,0.002779,0.001779,-0.002764,0.999965,-0.007878,-0.001801,0.007873,0.999967
30981,2,0,-67.0000,3.481022,0.368347,9.195794,0.004191,0.006732,0.026813,0.002555,0.008894,0.001687,-0.500610,0.396083,-1.109465,0.034814,0.003683,0.091956,1.000000,0.000013,0.000044,0.000008,0.999991,-0.003929,-0.000878,0.001399,-0.450328,-0.100021,0.160716,0.999995,0.002805,0.001746,-0.002791,0.999965,-0.007860,-0.001768,0.007855,0.999968
30982,2,0,-67.0000,3.468976,0.369258,9.174455,0.000542,0.008187,0.002643,0.005438,0.004434,0.004158,-0.504799,0.398637,-1.108036,0.034692,0.003691,0.091744,1.000000,0.000027,0.000022,0.000021,0.999991,-0.003910,-0.000884,0.001418,-0.448191,-0.100704,0.162894,0.999994,0.002843,0.001758,-0.002829,0.999965,-0.007822,-0.001780,0.007817,0.999968
30983,2,0,-66.0000,3.468521,0.369691,9.174610,-0.000011,0.008192,0.002643,0.005379,0.005622,-0.000504,-0.507550,0.399834,-1.119453,0.034688,0.003694,0.091745,1.000000,0.000027,0.000028,-0.000003,0.999991,-0.003885,-0.000884,0.001429,-0.445301,-0.100693,0.164092,0.999994,0.002864,0.001757,-0.002850,0.999966,-0.007772,-0.001780,0.007767,0.999968
30984,2,0,-67.0000,3.489577,0.370733,9.163361,0.023645,0.009411,-0.000393,0.003809,0.005563,0.002125,-0.500319,0.397837,-1.115793,0.034898,0.003706,0.091633,1.000000,0.000019,0.000028,0.000011,0.999991,-0.003870,-0.000884,0.001435,-0.443637,-0.100685,0.164876,0.999994,0.002878,0.001757,-0.002864,0.999966,-0.007743,-0.001780,0.007738,0.999968
30985,2,0,-66.0000,3.467501,0.370477,9.174964,-0.001077,0.008164,0.002643,0.005379,0.005622,-0.000503,-0.505722,0.396350,-1.117378,0.034678,0.003702,0.091749,1.000000,0.000027,0.000028,-0.000003,0.999991,-0.003844,-0.000883,0.001450,-0.440665,-0.100537,0.166592,0.999994,0.002908,0.001755,-0.002894,0.999966,-0.007691,-0.001777,0.007686,0.999969
30986,2,0,-66.0000,3.478218,0.370444,9.196771,0.001492,0.006669,0.026814,0.007699,0.010084,0.000065,-0.508218,0.393016,-1.109347,0.034787,0.003701,0.091966,1.000000,0.000038,0.000050,0.000000,0.999991,-0.003808,-0.000860,0.001455,-0.436543,-0.097888,0.167152,0.999994,0.002917,0.001708,-0.002904,0.999967,-0.007619,-0.001731,0.007614,0.999970
30987,2,0,-66.0000,3.487362,0.396619,9.164908,0.020968,0.033694,0.001230,0.003809,0.005563,0.002125,-0.502220,0.394642,-1.105182,0.034876,0.003965,0.091648,1.000000,0.000019,0.000028,0.000011,0.999991,-0.003793,-0.000861,0.001460,-0.434839,-0.098067,0.167728,0.999994,0.002927,0.001712,-0.002914,0.999967,-0.007589,-0.001734,0.007584,0.999970
30988,2,0,-66.0000,3.498147,0.371982,9.185936,0.024578,0.007860,0.023783,0.004817,0.014543,-0.002405,-0.500846,0.395015,-1.113002,0.034988,0.003717,0.091857,1.000000,0.000024,0.000073,-0.000012,0.999992,-0.003767,-0.000815,0.001450,-0.431806,-0.092812,0.166479,0.999994,0.002906,0.001620,-0.002893,0.999967,-0.007536,-0.001642,0.007532,0.999970
30989,2,0,-66.0000,3.485911,0.348667,9.163898,0.021975,-0.015017,-0.002006,0.005157,0.008895,0.003209,-0.505484,0.390916,-1.121482,0.034863,0.003485,0.091638,1.000000,0.000026,0.000044,0.000016,0.999992,-0.003749,-0.000799,0.001470,-0.429701,-0.090951,0.168736,0.999994,0.002945,0.001587,-0.002933,0.999968,-0.007500,-0.001609,0.007495,0.999971
30990,2,0,-66.0000,3.462766,0.397231,9.177419,-0.004839,0.032402,0.004262,0.002814,0.013470,-0.006035,-0.499877,0.392031,-1.116968,0.034634,0.003970,0.091772,1.000000,0.000014,0.000067,-0.000030,0.999992,-0.003725,-0.000758,0.001438,-0.426997,-0.086228,0.165116,0.999995,0.002882,0.001505,-0.002871,0.999968,-0.007452,-0.001526,0.007448,0.999971
30991,2,0,-66.0000,3.461464,0.397727,9.177889,-0.005350,0.032334,0.004261,0.004818,0.014542,-0.002402,-0.501037,0.387687,-1.113187,0.034621,0.003975,0.091776,1.000000,0.000024,0.000073,-0.000012,0.999992,-0.003696,-0.000711,0.001418,-0.423682,-0.080831,0.162788,0.999995,0.002841,0.001411,-0.002831,0.999969,-0.007395,-0.001432,0.007391,0.999972
30992,2,0,-66.0000,3.481976,0.374383,9.166103,0.019348,0.009212,-0.000383,0.003247,0.014484,0.000226,-0.502879,0.388232,-1.109674,0.034826,0.003742,0.091659,1.000000,0.000016,0.000072,0.000001,0.999992,-0.003682,-0.000666,0.001417,-0.422022,-0.075674,0.162632,0.999995,0.002838,0.001321,-0.002829,0.999969,-0.007366,-0.001342,0.007362,0.999972
30993,2,0,-66.0000,3.482336,0.348425,9.220217,0.001849,-0.019384,0.049366,0.003986,0.011182,-0.001410,-0.488090,0.394679,-1.117104,0.034829,0.003482,0.092200,1.000000,0.000020,0.000056,-0.000007,0.999992,-0.003658,-0.000637,0.001387,-0.419306,-0.072368,0.159211,0.999995,0.002779,0.001263,-0.002769,0.999969,-0.007318,-0.001283,0.007315,0.999972
30994,2,0,-65.0000,3.436287,0.398404,9.190591,-0.031152,0.030992,0.007284,0.007560,0.012313,-0.000403,-0.500639,0.396048,-1.108694,0.034369,0.003980,0.091904,1.000000,0.000038,0.000062,-0.000002,0.999992,-0.003622,-0.000602,0.001390,-0.415186,-0.068432,0.159541,0.999995,0.002785,0.001194,-0.002776,0.999970,-0.007246,-0.001215,0.007243,0.999973
30995,2,0,-65.0000,3.457143,0.375353,9.178674,-0.006396,0.007868,0.002641,0.004668,0.009067,-0.007707,-0.496714,0.390835,-1.116363,0.034576,0.003750,0.091785,1.000000,0.000023,0.000045,-0.000039,0.999992,-0.003587,-0.000579,0.001370,-0.411108,-0.065839,0.157265,0.999996,0.002745,0.001149,-0.002736,0.999971,-0.007175,-0.001169,0.007172,0.999974
30996,2,0,-65.0000,3.467653,0.375448,9.200557,-0.003840,0.006372,0.026813,0.006671,0.010139,-0.004073,-0.499923,0.394620,-1.114764,0.034681,0.003751,0.092004,1.000000,0.000033,0.000051,-0.000020,0.999993,-0.003548,-0.000555,0.001354,-0.406702,-0.063062,0.155403,0.999996,0.002712,0.001101,-0.002704,0.999971,-0.007098,-0.001120,0.007095,0.999974
30997,2,0,-65.0000,3.455177,0.401160,9.180108,-0.008470,0.032143,0.004260,0.006353,0.006751,-0.001010,-0.499315,0.390637,-1.112911,0.034555,0.004009,0.091800,1.000000,0.000032,0.000034,-0.000005,0.999993,-0.003515,-0.000547,0.001353,-0.402912,-0.062080,0.155315,0.999996,0.002711,0.001084,-0.002703,0.999972,-0.007032,-0.001103,0.007029,0.999975
30998,2,0,-66.0000,3.466237,0.376966,9.201028,-0.004878,0.006309,0.026813,0.010526,0.006811,-0.002114,-0.502185,0.396361,-1.110826,0.034666,0.003764,0.092009,1.000000,0.000053,0.000034,-0.000011,0.999993,-0.003462,-0.000539,0.001353,-0.396803,-0.061249,0.155208,0.999996,0.002709,0.001069,-0.002701,0.999972,-0.006925,-0.001088,0.006923,0.999975
30999,2,0,-66.0000,3.453808,0.402936,9.180545,-0.009540,0.032100,0.004259,0.007785,0.009039,-0.004110,-0.499079,0.390056,-1.110764,0.034542,0.004025,0.091804,1.000000,0.000039,0.000045,-0.000021,0.999993,-0.003418,-0.000520,0.001341,-0.391753,-0.059086,0.153879,0.999996,0.002686,0.001031,-0.002679,0.999973,-0.006837,-0.001050,0.006835,0.999976
31000,2,0,-65.0000,3.486391,0.379456,9.190098,0.018244,0.007497,0.023797,0.009553,0.005681,-0.001599,-0.500691,0.394271,-1.112721,0.034867,0.003790,0.091900,1.000000,0.000048,0.000028,-0.000008,0.999993,-0.003370,-0.000519,0.001341,-0.386258,-0.058915,0.153828,0.999996,0.002685,0.001028,-0.002678,0.999974,-0.006741,-0.001046,0.006739,0.999977
31001,2,0,-65.0000,3.474404,0.381062,9.168701,0.014629,0.008941,-0.000375,0.010526,0.006810,-0.002112,-0.502625,0.386956,-1.113821,0.034747,0.003805,0.091686,1.000000,0.000053,0.000034,-0.000011,0.999993,-0.003316,-0.000511,0.001340,-0.380073,-0.058036,0.153701,0.999996,0.002683,0.001013,-0.002676,0.999974,-0.006633,-0.001031,0.006631,0.999977
31002,2,0,-65.0000,3.452007,0.405761,9.181098,-0.011139,0.032029,0.004258,0.008066,0.004578,-0.003157,-0.496648,0.400869,-1.122092,0.034522,0.004053,0.091810,1.000000,0.000040,0.000023,-0.000016,0.999994,-0.003272,-0.000515,0.001329,-0.375050,-0.058461,0.152491,0.999996,0.002661,0.001020,-0.002655,0.999975,-0.006546,-0.001038,0.006543,0.999978
31003,2,0,-65.0000,3.451860,0.382201,9.180379,-0.010608,0.007656,0.002638,0.008580,0.004550,-0.001083,-0.502420,0.388512,-1.115753,0.034521,0.003818,0.091803,1.000000,0.000043,0.000023,-0.000005,0.999994,-0.003229,-0.000517,0.001337,-0.370080,-0.058769,0.153362,0.999996,0.002677,0.001026,-0.002670,0.999976,-0.006459,-0.001043,0.006456,0.999979
31004,2,0,-65.0000,3.461453,0.384464,9.147592,0.009970,0.010344,-0.024546,0.010472,0.007995,-0.006770,-0.502437,0.396362,-1.116403,0.034618,0.003839,0.091475,1.000000,0.000052,0.000040,-0.000034,0.999994,-0.003168,-0.000503,0.001314,-0.363071,-0.057148,0.150776,0.999996,0.002632,0.000997,-0.002625,0.999976,-0.006337,-0.001014,0.006334,0.999979
31005,2,0,-65.0000,3.450364,0.384238,9.180857,-0.011678,0.007600,0.002636,0.007645,0.011267,-0.004582,-0.503545,0.385981,-1.119700,0.034509,0.003838,0.091807,1.000000,0.000038,0.000056,-0.000023,0.999994,-0.003123,-0.000473,0.001297,-0.357946,-0.053696,0.148803,0.999996,0.002597,0.000937,-0.002591,0.999977,-0.006247,-0.000953,0.006245,0.999980
31006,2,0,-65.0000,3.460915,0.384792,9.202708,-0.009135,0.006103,0.026810,0.014700,0.006869,-0.003209,-0.498251,0.389105,-1.121990,0.034612,0.003841,0.092026,1.000000,0.000074,0.000034,-0.000016,0.999994,-0.003048,-0.000465,0.001298,-0.349377,-0.052800,0.148953,0.999996,0.002600,0.000922,-0.002594,0.999978,-0.006098,-0.000937,0.006095,0.999981
31007,2,0,-71.0000,3.482029,0.362631,9.190713,0.015591,-0.017092,0.022184,0.015620,0.009182,-0.008381,-0.500572,0.394167,-1.115815,0.034825,0.003618,0.091906,1.000000,0.000078,0.000046,-0.000042,0.999995,-0.002957,-0.000442,0.001262,-0.338915,-0.050263,0.144748,0.999996,0.002526,0.000877,-0.002521,0.999979,-0.005915,-0.000892,0.005913,0.999982
31008,2,0,-65.0000,3.426347,0.388112,9.192959,-0.037451,0.006251,0.005639,0.017247,0.008055,-0.006343,-0.499779,0.396537,-1.119312,0.034267,0.003872,0.091929,1.000000,0.000086,0.000040,-0.000032,0.999995,-0.002865,-0.000428,0.001253,-0.328360,-0.048609,0.143759,0.999996,0.002509,0.000848,-0.002504,0.999980,-0.005731,-0.000863,0.005729,0.999983
31009,2,0,-65.0000,3.480598,0.366161,9.191115,0.014536,-0.017126,0.022185,0.015901,0.004722,-0.007426,-0.508142,0.392390,-1.117183,0.034808,0.003653,0.091911,1.000000,0.000080,0.000024,-0.000037,0.999995,-0.002777,-0.000429,0.001252,-0.318309,-0.048719,0.143632,0.999996,0.002507,0.000850,-0.002502,0.999981,-0.005556,-0.000864,0.005553,0.999984
31010,2,0,-65.0000,3.447711,0.414861,9.237220,-0.033389,0.027600,0.055604,0.016875,0.005851,-0.007937,-0.499948,0.394341,-1.114005,0.034480,0.004139,0.092372,1.000000,0.000084,0.000029,-0.000040,0.999996,-0.002684,-0.000425,0.001235,-0.307611,-0.048288,0.141665,0.999997,0.002473,0.000843,-0.002468,0.999983,-0.005369,-0.000856,0.005367,0.999985
31011,2,0,-65.0000,3.467257,0.443214,9.172252,0.007274,0.057330,0.002871,0.011128,0.005736,-0.004213,-0.501865,0.387792,-1.115843,0.034675,0.004426,0.091722,1.000000,0.000056,0.000029,-0.000021,0.999996,-0.002624,-0.000423,0.001230,-0.300752,-0.048116,0.141093,0.999997,0.002463,0.000840,-0.002458,0.999983,-0.005249,-0.000853,0.005247,0.999986
31012,2,0,-65.0000,3.466427,0.468662,9.173218,0.005707,0.081649,0.004491,0.009554,0.005680,-0.001589,-0.502200,0.387258,-1.114951,0.034667,0.004682,0.091731,1.000000,0.000048,0.000028,-0.000008,0.999996,-0.002576,-0.000422,0.001230,-0.295258,-0.047946,0.141048,0.999997,0.002462,0.000837,-0.002457,0.999984,-0.005153,-0.000849,0.005151,0.999986
31013,2,0,-65.0000,3.477923,0.419975,9.193327,0.010307,0.031434,0.025428,0.003380,0.004544,-0.004125,-0.497603,0.392146,-1.107752,0.034781,0.004197,0.091933,1.000000,0.000017,0.000023,-0.000021,0.999996,-0.002550,-0.000425,0.001194,-0.292324,-0.048366,0.136894,0.999997,0.002389,0.000844,-0.002385,0.999984,-0.005102,-0.000856,0.005100,0.999987
31014,2,0,-65.0000,3.455521,0.444036,9.205693,-0.015458,0.054529,0.030044,0.003206,0.006638,0.004243,-0.500024,0.388802,-1.115883,0.034558,0.004440,0.092056,1.000000,0.000016,0.000033,0.000021,0.999996,-0.002543,-0.000420,0.001209,-0.291420,-0.047797,0.138717,0.999997,0.002421,0.000834,-0.002417,0.999984,-0.005086,-0.000847,0.005084,0.999987
31015,2,0,-65.0000,3.477209,0.395837,9.192886,0.010275,0.007049,0.023809,-0.001855,0.004403,0.001671,-0.506203,0.385806,-1.116791,0.034774,0.003960,0.091928,1.000000,-0.000009,0.000022,0.000008,0.999996,-0.002553,-0.000425,0.001207,-0.292642,-0.048389,0.138406,0.999997,0.002416,0.000845,-0.002411,0.999984,-0.005108,-0.000857,0.005105,0.999987
31016,2,0,-65.0000,3.466020,0.443174,9.227628,-0.013455,0.053004,0.054219,-0.001341,0.004376,0.003745,-0.508991,0.390231,-1.118396,0.034662,0.004433,0.092275,1.000000,-0.000007,0.000022,0.000019,0.999996,-0.002566,-0.000432,0.001212,-0.294054,-0.049107,0.138994,0.999997,0.002426,0.000857,-0.002421,0.999984,-0.005132,-0.000870,0.005130,0.999986
31017,2,0,-65.0000,3.454886,0.394651,9.204555,-0.015032,0.005749,0.026803,-0.002315,0.003247,0.004257,-0.503216,0.391705,-1.116412,0.034550,0.003948,0.092045,1.000000,-0.000012,0.000016,0.000021,0.999996,-0.002581,-0.000445,0.001200,-0.295858,-0.050683,0.137644,0.999997,0.002402,0.000885,-0.002398,0.999984,-0.005164,-0.000897,0.005162,0.999986
31018,2,0,-65.0000,3.476192,0.395045,9.193304,0.008630,0.006952,0.023811,-0.000741,0.003303,0.001634,-0.506694,0.385922,-1.114097,0.034763,0.003951,0.091932,1.000000,-0.000004,0.000017,0.000008,0.999996,-0.002587,-0.000457,0.001196,-0.296511,-0.051963,0.137197,0.999997,0.002395,0.000907,-0.002390,0.999984,-0.005175,-0.000919,0.005173,0.999986
31019,2,0,-65.0000,3.442730,0.419357,9.183970,-0.020217,0.031503,0.004245,0.002000,0.001077,0.003635,-0.504323,0.396199,-1.113465,0.034428,0.004193,0.091840,1.000000,0.000010,0.000005,0.000018,0.999996,-0.002582,-0.000480,0.001195,-0.295919,-0.054691,0.137058,0.999997,0.002392,0.000955,-0.002387,0.999984,-0.005165,-0.000967,0.005162,0.999986
31020,2,0,-65.0000,3.464334,0.395340,9.171906,0.004473,0.008365,-0.000365,-0.004542,0.005447,0.004331,-0.504025,0.397186,-1.113564,0.034646,0.003956,0.091718,1.000000,-0.000023,0.000027,0.000022,0.999996,-0.002610,-0.000481,0.001197,-0.299176,-0.054814,0.137339,0.999997,0.002397,0.000957,-0.002392,0.999984,-0.005222,-0.000969,0.005219,0.999986
31021,2,0,-65.0000,3.475488,0.394342,9.193601,0.006971,0.006899,0.023812,-0.001061,-0.000082,0.004697,-0.500168,0.395596,-1.114807,0.034755,0.003945,0.091936,1.000000,-0.000005,-0.000000,0.000023,0.999996,-0.002624,-0.000512,0.001223,-0.300782,-0.058255,0.140352,0.999996,0.002450,0.001017,-0.002444,0.999983,-0.005250,-0.001030,0.005247,0.999986
31022,2,0,-65.0000,3.463923,0.394578,9.172094,0.003376,0.008360,-0.000364,-0.003941,0.004373,0.002221,-0.503714,0.393341,-1.103982,0.034641,0.003948,0.091720,1.000000,-0.000020,0.000022,0.000011,0.999996,-0.002646,-0.000518,0.001217,-0.303280,-0.058940,0.139599,0.999997,0.002436,0.001029,-0.002431,0.999983,-0.005293,-0.001042,0.005291,0.999985
31023,2,0,-65.0000,3.463541,0.394114,9.172259,0.002819,0.008367,-0.000364,-0.002915,0.004320,0.006369,-0.496446,0.388210,-1.112218,0.034637,0.003944,0.091722,1.000000,-0.000015,0.000022,0.000032,0.999996,-0.002672,-0.000526,0.001244,-0.306218,-0.059878,0.142681,0.999996,0.002490,0.001045,-0.002485,0.999983,-0.005344,-0.001058,0.005342,0.999985
31024,2,0,-65.0000,3.452944,0.392523,9.205375,-0.018862,0.005648,0.026796,-0.001341,0.004376,0.003746,-0.502383,0.394934,-1.117240,0.034531,0.003926,0.092053,1.000000,-0.000007,0.000022,0.000019,0.999995,-0.002684,-0.000532,0.001249,-0.307630,-0.060597,0.143270,0.999996,0.002501,0.001058,-0.002495,0.999982,-0.005369,-0.001071,0.005366,0.999985
31025,2,0,-65.0000,3.495903,0.393492,9.182746,0.029021,0.008055,0.020831,-0.002688,0.001044,0.002660,-0.508076,0.394654,-1.107643,0.034959,0.003937,0.091827,1.000000,-0.000013,0.000005,0.000013,0.999995,-0.002700,-0.000554,0.001251,-0.309446,-0.063087,0.143506,0.999996,0.002505,0.001101,-0.002499,0.999982,-0.005401,-0.001115,0.005398,0.999985
31026,2,0,-65.0000,3.462795,0.393046,9.172586,0.001231,0.008297,-0.000364,-0.003288,0.002118,0.004771,-0.501654,0.395456,-1.112239,0.034629,0.003933,0.091725,1.000000,-0.000016,0.000011,0.000024,0.999995,-0.002723,-0.000572,0.001257,-0.312087,-0.065126,0.144201,0.999996,0.002517,0.001137,-0.002511,0.999982,-0.005447,-0.001150,0.005444,0.999985
31027,2,0,-65.0000,3.462337,0.416978,9.173489,-0.000371,0.032644,0.001256,-0.003288,0.002117,0.004771,-0.501690,0.382345,-1.114227,0.034624,0.004172,0.091734,1.000000,-0.000016,0.000011,0.000024,0.999995,-0.002747,-0.000592,0.001273,-0.314889,-0.067397,0.146009,0.999996,0.002548,0.001176,-0.002542,0.999982,-0.005496,-0.001190,0.005493,0.999984
31028,2,0,-65.0000,3.485248,0.390687,9.215936,0.006217,0.005325,0.047992,-0.009462,0.000983,0.002234,-0.506188,0.391519,-1.113360,0.034853,0.003912,0.092159,1.000000,-0.000047,0.000005,0.000011,0.999995,-0.002795,-0.000615,0.001256,-0.320317,-0.070029,0.144075,0.999996,0.002515,0.001222,-0.002508,0.999981,-0.005591,-0.001236,0.005587,0.999984
31029,2,0,-65.0000,3.462089,0.415448,9.173652,-0.001455,0.032563,0.001256,-0.004862,0.002061,0.007395,-0.500478,0.393598,-1.113981,0.034622,0.004158,0.091736,1.000000,-0.000024,0.000010,0.000037,0.999995,-0.002827,-0.000634,0.001253,-0.324084,-0.072246,0.143832,0.999996,0.002510,0.001261,-0.002503,0.999981,-0.005656,-0.001275,0.005653,0.999983
31030,2,0,-65.0000,3.462200,0.390372,9.172925,-0.000967,0.008204,-0.000364,-0.005888,0.002115,0.003247,-0.497099,0.391392,-1.112562,0.034623,0.003907,0.091729,1.000000,-0.000029,0.000011,0.000016,0.999995,-0.002860,-0.000652,0.001248,-0.327811,-0.074252,0.143186,0.999996,0.002499,0.001296,-0.002492,0.999981,-0.005721,-0.001310,0.005718,0.999983
31031,2,0,-65.0000,3.483246,0.414527,9.162527,0.021696,0.033735,-0.001718,-0.009689,0.004259,0.005945,-0.502340,0.388581,-1.111803,0.034834,0.004151,0.091624,1.000000,-0.000048,0.000021,0.000030,0.999995,-0.002915,-0.000658,0.001257,-0.334113,-0.074979,0.144218,0.999996,0.002517,0.001309,-0.002509,0.999980,-0.005831,-0.001323,0.005828,0.999982
31032,2,0,-65.0000,3.484032,0.411599,9.217264,0.003047,0.029538,0.049612,-0.009689,0.004258,0.005946,-0.502324,0.389254,-1.110457,0.034842,0.004121,0.092172,1.000000,-0.000048,0.000021,0.000030,0.999995,-0.002970,-0.000665,0.001257,-0.340444,-0.075827,0.144301,0.999996,0.002519,0.001323,-0.002511,0.999979,-0.005942,-0.001338,0.005938,0.999981
31033,2,0,-65.0000,3.482515,0.412338,9.162903,0.020616,0.033670,-0.001715,-0.009688,0.004258,0.005947,-0.506134,0.393668,-1.117669,0.034827,0.004129,0.091628,1.000000,-0.000048,0.000021,0.000030,0.999994,-0.003024,-0.000673,0.001248,-0.346629,-0.076739,0.143294,0.999996,0.002501,0.001339,-0.002493,0.999979,-0.006050,-0.001354,0.006046,0.999981
31034,2,0,-65.0000,3.472192,0.385818,9.195208,-0.000059,0.006616,0.023815,-0.005514,0.004316,0.004848,-0.502963,0.386851,-1.117086,0.034724,0.003862,0.091951,1.000000,-0.000028,0.000022,0.000024,0.999994,-0.003058,-0.000680,0.001251,-0.350500,-0.077523,0.143632,0.999996,0.002507,0.001353,-0.002499,0.999978,-0.006117,-0.001368,0.006114,0.999980
31035,2,0,-65.0000,3.472024,0.360823,9.194568,0.000419,-0.017775,0.022195,-0.005566,0.005500,0.000187,-0.505330,0.391635,-1.115643,0.034723,0.003611,0.091945,1.000000,-0.000028,0.000028,0.000001,0.999994,-0.003082,-0.000680,0.001224,-0.353278,-0.077547,0.140513,0.999996,0.002452,0.001353,-0.002444,0.999978,-0.006166,-0.001369,0.006162,0.999980
31036,2,0,-65.0000,3.449922,0.359861,9.206127,-0.024321,-0.019007,0.025162,-0.000366,0.005504,0.003237,-0.505597,0.391995,-1.112853,0.034502,0.003599,0.092060,1.000000,-0.000002,0.000028,0.000016,0.999994,-0.003089,-0.000681,0.001229,-0.354075,-0.077606,0.141051,0.999996,0.002462,0.001354,-0.002453,0.999978,-0.006180,-0.001370,0.006176,0.999980
31037,2,0,-65.0000,3.470704,0.384797,9.195812,-0.001699,0.006511,0.023815,0.000608,0.006633,0.002726,-0.500141,0.386734,-1.107938,0.034710,0.003848,0.091957,1.000000,0.000003,0.000033,0.000014,0.999994,-0.003090,-0.000677,0.001228,-0.354180,-0.077140,0.140988,0.999996,0.002461,0.001346,-0.002452,0.999978,-0.006182,-0.001362,0.006178,0.999980
31038,2,0,-65.0000,3.480551,0.385782,9.163017,0.018931,0.009185,-0.003329,-0.003288,0.002116,0.004774,-0.501876,0.394782,-1.108179,0.034806,0.003860,0.091630,1.000000,-0.000016,0.000011,0.000024,0.999994,-0.003113,-0.000695,0.001234,-0.356822,-0.079179,0.141686,0.999996,0.002473,0.001382,-0.002464,0.999978,-0.006228,-0.001397,0.006224,0.999980
31039,2,0,-65.0000,3.458235,0.409155,9.175388,-0.006839,0.032287,0.001255,-0.003104,0.007731,0.001239,-0.498561,0.400147,-1.112143,0.034586,0.004093,0.091752,1.000000,-0.000016,0.000039,0.000006,0.999994,-0.003129,-0.000684,0.001224,-0.358667,-0.077984,0.140454,0.999996,0.002451,0.001361,-0.002443,0.999977,-0.006260,-0.001376,0.006257,0.999979
31040,2,0,-65.0000,3.457911,0.384415,9.174794,-0.006356,0.007929,-0.000365,-0.002453,0.005474,0.003788,-0.502532,0.384551,-1.109209,0.034582,0.003846,0.091747,1.000000,-0.000012,0.000027,0.000019,0.999994,-0.003147,-0.000685,0.001227,-0.360694,-0.078076,0.140866,0.999996,0.002459,0.001363,-0.002450,0.999977,-0.006295,-0.001378,0.006292,0.999979
31041,2,0,-65.0000,3.468409,0.407858,9.197466,-0.004878,0.030763,0.025434,-0.003104,0.007731,0.001239,-0.500455,0.397081,-1.109878,0.034688,0.004080,0.091973,1.000000,-0.000016,0.000039,0.000006,0.999994,-0.003163,-0.000674,0.001222,-0.362559,-0.076812,0.140287,0.999996,0.002448,0.001341,-0.002440,0.999977,-0.006328,-0.001356,0.006325,0.999979
31042,2,0,-65.0000,3.478331,0.384346,9.163921,0.016776,0.009096,-0.003325,-0.001941,0.005446,0.005863,-0.502556,0.393075,-1.114005,0.034786,0.003845,0.091638,1.000000,-0.000010,0.000027,0.000029,0.999994,-0.003182,-0.000676,0.001236,-0.364731,-0.076968,0.141913,0.999996,0.002477,0.001343,-0.002468,0.999977,-0.006366,-0.001359,0.006362,0.999979
31043,2,0,-65.0000,3.456405,0.359059,9.174667,-0.006949,-0.016459,-0.001986,-0.000504,0.007732,0.002765,-0.502551,0.391183,-1.115405,0.034568,0.003591,0.091745,1.000000,-0.000003,0.000039,0.000014,0.999994,-0.003190,-0.000665,0.001250,-0.365601,-0.075761,0.143489,0.999996,0.002504,0.001322,-0.002496,0.999977,-0.006381,-0.001338,0.006378,0.999979
31044,2,0,-66.0000,3.477341,0.383869,9.164316,0.015701,0.009069,-0.003323,-0.003712,0.001099,-0.001488,-0.495724,0.392890,-1.112752,0.034774,0.003840,0.091643,1.000000,-0.000019,0.000005,-0.000007,0.999994,-0.003204,-0.000687,0.001226,-0.367195,-0.078233,0.140724,0.999996,0.002456,0.001365,-0.002447,0.999976,-0.006409,-0.001381,0.006405,0.999979
31045,2,0,-65.0000,3.455650,0.358680,9.174967,-0.007999,-0.016514,-0.001987,0.000609,0.006632,0.002728,-0.503503,0.389800,-1.112178,0.034559,0.003587,0.091749,1.000000,0.000003,0.000033,0.000014,0.999994,-0.003204,-0.000680,0.001234,-0.367283,-0.077499,0.141690,0.999996,0.002473,0.001353,-0.002464,0.999976,-0.006410,-0.001368,0.006407,0.999979
31046,2,0,-65.0000,3.465492,0.360114,9.142165,0.012644,-0.013843,-0.029122,0.004036,0.002287,-0.001572,-0.503507,0.386653,-1.112862,0.034656,0.003599,0.091421,1.000000,0.000020,0.000011,-0.000008,0.999994,-0.003182,-0.000696,0.001224,-0.364718,-0.079278,0.140467,0.999996,0.002452,0.001384,-0.002443,0.999977,-0.006365,-0.001399,0.006362,0.999979
31047,2,0,-65.0000,3.477380,0.382351,9.219257,-0.004054,0.004784,0.047993,0.002322,0.004459,0.000578,-0.496285,0.390893,-1.117504,0.034776,0.003823,0.092192,1.000000,0.000012,0.000022,0.000003,0.999994,-0.003170,-0.000701,0.001206,-0.363312,-0.079942,0.138423,0.999996,0.002416,0.001395,-0.002407,0.999977,-0.006341,-0.001411,0.006338,0.999979
31048,2,0,-65.0000,3.475594,0.408705,9.165694,0.012553,0.033276,-0.001700,-0.000277,0.004458,-0.000948,-0.496593,0.391949,-1.113910,0.034758,0.004087,0.091656,1.000000,-0.000001,0.000022,-0.000005,0.999994,-0.003169,-0.000706,0.001191,-0.363206,-0.080499,0.136714,0.999996,0.002386,0.001405,-0.002377,0.999977,-0.006339,-0.001420,0.006336,0.999979
31049,2,0,-66.0000,3.464976,0.407629,9.198771,-0.009119,0.030542,0.025432,0.002923,0.003387,-0.001534,-0.497491,0.399497,-1.113602,0.034651,0.004075,0.091987,1.000000,0.000015,0.000017,-0.000008,0.999994,-0.003150,-0.000714,0.001186,-0.361110,-0.081367,0.136136,0.999996,0.002376,0.001420,-0.002367,0.999977,-0.006303,-0.001435,0.006299,0.999979
31050,2,0,-65.0000,3.465209,0.359024,9.197209,-0.007627,-0.018155,0.022191,0.001860,0.003303,0.003164,-0.514215,0.393319,-1.118374,0.034654,0.003590,0.091972,1.000000,0.000009,0.000017,0.000016,0.999994,-0.003147,-0.000725,0.001194,-0.360678,-0.082681,0.137036,0.999996,0.002392,0.001443,-0.002383,0.999977,-0.006295,-0.001458,0.006292,0.999979
31051,2,0,-65.0000,3.474891,0.384852,9.165204,0.011987,0.008867,-0.003318,0.002923,0.003387,-0.001534,-0.507772,0.397418,-1.114699,0.034750,0.003847,0.091652,1.000000,0.000015,0.000017,-0.000008,0.999994,-0.003130,-0.000736,0.001191,-0.358808,-0.083961,0.136690,0.999996,0.002386,0.001465,-0.002376,0.999978,-0.006262,-0.001480,0.006259,0.999979
31052,2,0,-66.0000,3.475686,0.383194,9.219860,-0.006721,0.004675,0.047992,0.001860,0.003303,0.003165,-0.504602,0.388580,-1.107170,0.034758,0.003832,0.092198,1.000000,0.000009,0.000017,0.000016,0.999994,-0.003127,-0.000748,0.001198,-0.358376,-0.085275,0.137589,0.999996,0.002401,0.001488,-0.002392,0.999978,-0.006255,-0.001503,0.006251,0.999979
31053,2,0,-65.0000,3.463976,0.383946,9.198384,-0.010315,0.006143,0.023810,0.001810,0.004487,-0.001496,-0.501844,0.396931,-1.117980,0.034642,0.003838,0.091983,1.000000,0.000009,0.000022,-0.000007,0.999994,-0.003115,-0.000754,0.001182,-0.357060,-0.086031,0.135767,0.999996,0.002370,0.001502,-0.002360,0.999978,-0.006232,-0.001516,0.006228,0.999979
31054,2,0,-65.0000,3.474194,0.360987,9.164716,0.011353,-0.015528,-0.004936,0.002461,0.002230,0.001052,-0.513701,0.388163,-1.117660,0.034743,0.003609,0.091647,1.000000,0.000012,0.000011,0.000005,0.999994,-0.003105,-0.000771,0.001181,-0.355869,-0.087908,0.135632,0.999996,0.002367,0.001534,-0.002358,0.999978,-0.006211,-0.001549,0.006207,0.999980
31055,2,0,-66.0000,3.451949,0.385124,9.177009,-0.014429,0.007571,-0.000374,0.004872,0.005645,-0.002556,-0.501130,0.393482,-1.117104,0.034522,0.003849,0.091769,1.000000,0.000024,0.000028,-0.000013,0.999994,-0.003076,-0.000771,0.001162,-0.352588,-0.087892,0.133461,0.999996,0.002329,0.001534,-0.002320,0.999978,-0.006154,-0.001548,0.006150,0.999980
31056,2,0,-65.0000,3.484499,0.385449,9.187421,0.012253,0.007270,0.020867,0.001348,0.003330,0.001090,-0.505467,0.386550,-1.122220,0.034846,0.003854,0.091874,1.000000,0.000007,0.000017,0.000005,0.999994,-0.003071,-0.000781,0.001160,-0.352012,-0.089142,0.133146,0.999996,0.002324,0.001556,-0.002314,0.999978,-0.006144,-0.001570,0.006140,0.999980
31057,2,0,-65.0000,3.462531,0.384965,9.198886,-0.012476,0.006008,0.023807,0.002322,0.004459,0.000579,-0.497838,0.392820,-1.111984,0.034627,0.003849,0.091988,1.000000,0.000012,0.000022,0.000003,0.999994,-0.003059,-0.000786,0.001150,-0.350583,-0.089646,0.132002,0.999996,0.002304,0.001565,-0.002294,0.999979,-0.006119,-0.001579,0.006115,0.999980
31058,2,0,-65.0000,3.483317,0.410025,9.188589,0.010183,0.031529,0.022489,-0.001016,0.007759,0.000691,-0.497880,0.393423,-1.109097,0.034837,0.004101,0.091885,1.000000,-0.000005,0.000039,0.000003,0.999994,-0.003064,-0.000775,0.001142,-0.351236,-0.088354,0.131094,0.999996,0.002288,0.001542,-0.002279,0.999979,-0.006130,-0.001556,0.006127,0.999980
31059,2,0,-66.0000,3.483300,0.361055,9.187147,0.011688,-0.017166,0.019249,-0.001852,0.004402,0.001676,-0.502263,0.392378,-1.109231,0.034835,0.003612,0.091871,1.000000,-0.000009,0.000022,0.000008,0.999994,-0.003075,-0.000779,0.001148,-0.352525,-0.088887,0.131852,0.999996,0.002301,0.001551,-0.002292,0.999978,-0.006153,-0.001565,0.006149,0.999980
31060,2,0,-65.0000,3.493925,0.384773,9.209760,0.013146,0.005669,0.045053,0.001210,0.005559,0.000617,-0.507374,0.390287,-1.108124,0.034942,0.003847,0.092097,1.000000,0.000006,0.000028,0.000003,0.999994,-0.003070,-0.000779,0.001143,-0.351948,-0.088849,0.131305,0.999996,0.002292,0.001551,-0.002282,0.999979,-0.006143,-0.001565,0.006139,0.999980
31061,2,0,-65.0000,3.449063,0.385397,9.178083,-0.017645,0.007418,-0.000379,0.000608,0.006632,0.002730,-0.502061,0.394458,-1.117404,0.034494,0.003854,0.091780,1.000000,0.000003,0.000033,0.000014,0.999994,-0.003072,-0.000775,0.001143,-0.352122,-0.088457,0.131251,0.999996,0.002291,0.001544,-0.002281,0.999979,-0.006146,-0.001558,0.006142,0.999980
31062,2,0,-65.0000,3.470169,0.386016,9.166944,0.006027,0.008598,-0.003312,-0.000788,0.004485,-0.003022,-0.504371,0.395118,-1.105705,0.034704,0.003860,0.091669,1.000000,-0.000004,0.000022,-0.000015,0.999994,-0.003070,-0.000780,0.001117,-0.351871,-0.088949,0.128328,0.999996,0.002240,0.001552,-0.002230,0.999979,-0.006141,-0.001566,0.006138,0.999980
31063,2,0,-65.0000,3.469664,0.386000,9.167136,0.005475,0.008592,-0.003312,0.001120,0.006604,0.004805,-0.501542,0.387409,-1.118091,0.034700,0.003860,0.091670,1.000000,0.000006,0.000033,0.000024,0.999994,-0.003073,-0.000776,0.001141,-0.352282,-0.088503,0.131034,0.999996,0.002287,0.001545,-0.002277,0.999979,-0.006148,-0.001559,0.006145,0.999980
31064,2,0,-65.0000,3.458944,0.384779,9.200243,-0.016268,0.005889,0.023802,0.001348,0.003330,0.001091,-0.497515,0.394086,-1.112843,0.034591,0.003847,0.092002,1.000000,0.000007,0.000017,0.000005,0.999994,-0.003068,-0.000787,0.001138,-0.351706,-0.089752,0.130719,0.999996,0.002281,0.001566,-0.002272,0.999979,-0.006138,-0.001580,0.006135,0.999980
31065,2,0,-65.0000,3.457314,0.411000,9.146635,0.000423,0.034352,-0.025875,-0.000740,0.003301,0.001639,-0.503559,0.389917,-1.114804,0.034575,0.004111,0.091466,1.000000,-0.000004,0.000017,0.000008,0.999994,-0.003073,-0.000797,0.001136,-0.352208,-0.090877,0.130440,0.999996,0.002277,0.001586,-0.002267,0.999979,-0.006147,-0.001600,0.006144,0.999980
31066,2,0,-65.0000,3.479654,0.409590,9.189996,0.005884,0.031362,0.022493,-0.001341,0.004374,0.003752,-0.501390,0.398301,-1.110167,0.034798,0.004097,0.091899,1.000000,-0.000007,0.000022,0.000019,0.999994,-0.003085,-0.000803,0.001141,-0.353621,-0.091596,0.131033,0.999996,0.002287,0.001599,-0.002277,0.999978,-0.006172,-0.001613,0.006168,0.999980
31067,2,0,-65.0000,3.479679,0.385106,9.189261,0.006349,0.007009,0.020873,0.001486,0.001101,0.001565,-0.503626,0.388500,-1.110463,0.034797,0.003851,0.091892,1.000000,0.000007,0.000006,0.000008,0.999994,-0.003080,-0.000825,0.001148,-0.353081,-0.094169,0.131825,0.999996,0.002301,0.001644,-0.002291,0.999978,-0.006162,-0.001658,0.006159,0.999980
31068,2,0,-65.0000,3.468147,0.385788,9.167719,0.002816,0.008475,-0.003311,0.001859,0.003302,0.003167,-0.502181,0.387594,-1.111532,0.034683,0.003858,0.091677,1.000000,0.000009,0.000017,0.000016,0.999994,-0.003076,-0.000837,0.001156,-0.352650,-0.095484,0.132725,0.999996,0.002316,0.001667,-0.002306,0.999978,-0.006155,-0.001681,0.006151,0.999980
31069,2,0,-65.0000,3.478179,0.387051,9.134874,0.023485,0.011105,-0.030418,-0.000138,0.002229,-0.000473,-0.508445,0.384586,-1.112212,0.034783,0.003870,0.091348,1.000000,-0.000001,0.000011,-0.000002,0.999994,-0.003074,-0.000853,0.001130,-0.352357,-0.097392,0.129841,0.999996,0.002266,0.001700,-0.002256,0.999979,-0.006150,-0.001714,0.006146,0.999980
31070,2,0,-65.0000,3.500928,0.361501,9.177342,0.029942,-0.016226,0.016332,0.003483,0.002175,0.005205,-0.499575,0.391971,-1.104586,0.035010,0.003614,0.091773,1.000000,0.000017,0.000011,0.000026,0.999994,-0.003066,-0.000871,0.001150,-0.351457,-0.099399,0.132136,0.999996,0.002306,0.001735,-0.002296,0.999979,-0.006134,-0.001749,0.006130,0.999980
31071,2,0,-65.0000,3.467250,0.410560,9.168770,0.000166,0.032702,-0.001690,0.004548,0.002258,0.000506,-0.505301,0.388373,-1.119193,0.034674,0.004104,0.091687,1.000000,0.000023,0.000011,0.000003,0.999994,-0.003044,-0.000888,0.001138,-0.348905,-0.101403,0.130681,0.999996,0.002281,0.001770,-0.002270,0.999979,-0.006089,-0.001784,0.006085,0.999980
31072,2,0,-65.0000,3.488873,0.387138,9.156703,0.024845,0.009536,-0.006229,0.002925,0.003386,-0.001532,-0.499832,0.399707,-1.119171,0.034890,0.003870,0.091566,1.000000,0.000015,0.000017,-0.000008,0.999994,-0.003027,-0.000898,0.001125,-0.346953,-0.102556,0.129280,0.999996,0.002256,0.001790,-0.002245,0.999979,-0.006055,-0.001804,0.006051,0.999980
31073,2,0,-65.0000,3.445015,0.410443,9.180303,-0.025097,0.031458,0.001228,0.000747,0.004403,0.003204,-0.497641,0.389824,-1.115979,0.034452,0.004105,0.091802,1.000000,0.000004,0.000022,0.000016,0.999994,-0.003028,-0.000904,0.001140,-0.347073,-0.103139,0.130905,0.999996,0.002285,0.001800,-0.002274,0.999979,-0.006058,-0.001814,0.006053,0.999980
31074,2,0,-65.0000,3.477418,0.410475,9.190803,0.001564,0.031146,0.022495,0.001073,0.007787,0.000145,-0.504618,0.388710,-1.121008,0.034778,0.004104,0.091907,1.000000,0.000005,0.000039,0.000001,0.999994,-0.003023,-0.000892,0.001133,-0.346496,-0.101814,0.130127,0.999996,0.002271,0.001777,-0.002260,0.999979,-0.006047,-0.001791,0.006043,0.999980
31075,2,0,-65.0000,3.455192,0.409833,9.202352,-0.023155,0.029891,0.025410,-0.000366,0.005503,0.003242,-0.499004,0.394469,-1.116516,0.034554,0.004099,0.092023,1.000000,-0.000002,0.000028,0.000016,0.999994,-0.003028,-0.000891,0.001133,-0.347047,-0.101712,0.130154,0.999996,0.002272,0.001775,-0.002261,0.999979,-0.006057,-0.001789,0.006053,0.999980
31076,2,0,-65.0000,3.498364,0.362228,9.178291,0.026735,-0.016423,0.016341,0.001584,0.007760,0.002221,-0.503283,0.398905,-1.113458,0.034987,0.003622,0.091782,1.000000,0.000008,0.000039,0.000011,0.999994,-0.003024,-0.000880,0.001137,-0.346615,-0.100453,0.130591,0.999996,0.002279,0.001753,-0.002269,0.999979,-0.006050,-0.001767,0.006046,0.999980
31077,2,0,-65.0000,3.476071,0.361771,9.189857,0.001999,-0.017616,0.019255,0.001164,0.006742,-0.004042,-0.502131,0.391635,-1.114441,0.034764,0.003616,0.091897,1.000000,0.000006,0.000034,-0.000020,0.999994,-0.003012,-0.000872,0.001129,-0.345238,-0.099560,0.129670,0.999996,0.002263,0.001738,-0.002253,0.999979,-0.006025,-0.001751,0.006022,0.999980
31078,2,0,-65.0000,3.475295,0.386470,9.190863,0.000458,0.006704,0.020875,0.005433,0.004432,0.004186,-0.506223,0.396674,-1.108410,0.034755,0.003863,0.091908,1.000000,0.000027,0.000022,0.000021,0.999994,-0.002993,-0.000878,0.001148,-0.343108,-0.100248,0.131861,0.999996,0.002301,0.001750,-0.002291,0.999979,-0.005988,-0.001763,0.005984,0.999981
31079,2,0,-65.0000,3.474576,0.411208,9.191845,-0.001104,0.031035,0.022495,0.002788,0.005614,-0.002004,-0.503441,0.398243,-1.115118,0.034748,0.004110,0.091918,1.000000,0.000014,0.000028,-0.000010,0.999995,-0.002977,-0.000878,0.001140,-0.341222,-0.100240,0.130892,0.999996,0.002284,0.001750,-0.002274,0.999980,-0.005955,-0.001763,0.005951,0.999981
31080,2,0,-65.0000,3.474625,0.362894,9.190359,0.000365,-0.017664,0.019255,0.005988,0.004542,-0.002588,-0.503555,0.391415,-1.115509,0.034748,0.003626,0.091903,1.000000,0.000030,0.000023,-0.000013,0.999995,-0.002944,-0.000882,0.001128,-0.337426,-0.100701,0.129569,0.999996,0.002261,0.001758,-0.002251,0.999980,-0.005889,-0.001771,0.005885,0.999981
31081,2,0,-65.0000,3.462345,0.412937,9.170517,-0.005159,0.032489,-0.001691,0.005988,0.004542,-0.002587,-0.494117,0.397348,-1.108005,0.034626,0.004126,0.091705,1.000000,0.000030,0.000023,-0.000013,0.999995,-0.002911,-0.000886,0.001126,-0.333666,-0.101184,0.129295,0.999996,0.002257,0.001766,-0.002246,0.999981,-0.005824,-0.001779,0.005820,0.999981
31082,2,0,-65.0000,3.473195,0.412815,9.192295,-0.002718,0.030982,0.022495,0.002788,0.005614,-0.002003,-0.504927,0.394806,-1.115330,0.034735,0.004127,0.091922,1.000000,0.000014,0.000028,-0.000010,0.999995,-0.002894,-0.000885,0.001112,-0.331714,-0.101050,0.127663,0.999996,0.002228,0.001764,-0.002218,0.999981,-0.005789,-0.001777,0.005786,0.999982
31083,2,0,-65.0000,3.472573,0.413130,9.192516,-0.003245,0.030986,0.022495,0.003161,0.007815,-0.000400,-0.508307,0.384818,-1.111887,0.034729,0.004130,0.091924,1.000000,0.000016,0.000039,-0.000002,0.999995,-0.002879,-0.000873,0.001125,-0.330042,-0.099626,0.129254,0.999996,0.002256,0.001739,-0.002246,0.999981,-0.005760,-0.001752,0.005756,0.999982
31084,2,0,-65.0000,3.472223,0.388928,9.191920,-0.002779,0.006627,0.020875,0.001211,0.005558,0.000620,-0.501194,0.393377,-1.109300,0.034725,0.003889,0.091918,1.000000,0.000006,0.000028,0.000003,0.999995,-0.002874,-0.000872,0.001121,-0.329466,-0.099589,0.128709,0.999996,0.002246,0.001738,-0.002236,0.999981,-0.005750,-0.001751,0.005746,0.999982
31085,2,0,-65.0000,3.460536,0.389695,9.170429,-0.006315,0.008075,-0.003312,0.001440,0.002284,-0.003095,-0.502813,0.389556,-1.111931,0.034606,0.003896,0.091704,1.000000,0.000007,0.000011,-0.000015,0.999995,-0.002860,-0.000889,0.001088,-0.327869,-0.101489,0.124971,0.999996,0.002181,0.001771,-0.002171,0.999981,-0.005722,-0.001784,0.005718,0.999982
31086,2,0,-64.0000,3.471548,0.389297,9.192160,-0.003880,0.006568,0.020875,0.002834,0.004431,0.002659,-0.500578,0.394132,-1.109552,0.034717,0.003892,0.091921,1.000000,0.000014,0.000022,0.000013,0.999995,-0.002851,-0.000895,0.001095,-0.326824,-0.102144,0.125820,0.999996,0.002196,0.001783,-0.002186,0.999981,-0.005704,-0.001795,0.005700,0.999982
31087,2,0,-65.0000,3.504088,0.389608,9.202619,0.022760,0.006247,0.042162,0.003901,0.004514,-0.002039,-0.493449,0.390324,-1.114640,0.035043,0.003894,0.092025,1.000000,0.000020,0.000023,-0.000010,0.999995,-0.002829,-0.000899,0.001086,-0.324246,-0.102665,0.124756,0.999996,0.002177,0.001792,-0.002167,0.999982,-0.005659,-0.001804,0.005655,0.999982
31088,2,0,-65.0000,3.459349,0.390666,9.170836,-0.007927,0.008015,-0.003313,0.005386,0.005615,-0.000473,-0.508176,0.395897,-1.113623,0.034596,0.003904,0.091707,1.000000,0.000027,0.000028,-0.000002,0.999995,-0.002802,-0.000898,0.001084,-0.321211,-0.102564,0.124468,0.999996,0.002172,0.001790,-0.002162,0.999982,-0.005606,-0.001802,0.005602,0.999983
31089,2,0,-65.0000,3.480779,0.367441,9.158870,0.016762,-0.015158,-0.007830,0.006499,0.004515,-0.000509,-0.501601,0.395770,-1.113770,0.034810,0.003671,0.091588,1.000000,0.000032,0.000023,-0.000003,0.999995,-0.002770,-0.000902,0.001092,-0.317551,-0.103019,0.125378,0.999996,0.002188,0.001798,-0.002178,0.999982,-0.005542,-0.001810,0.005538,0.999983
31090,2,0,-65.0000,3.469725,0.391311,9.192762,-0.006021,0.006487,0.020874,0.006964,0.005670,-0.003094,-0.496730,0.379896,-1.117710,0.034700,0.003909,0.091927,1.000000,0.000035,0.000028,-0.000015,0.999995,-0.002732,-0.000900,0.001080,-0.313141,-0.102821,0.124005,0.999996,0.002164,0.001795,-0.002154,0.999983,-0.005465,-0.001806,0.005461,0.999983
31091,2,0,-70.0000,3.469195,0.392151,9.192927,-0.006526,0.006426,0.020873,0.009563,0.005671,-0.001564,-0.501649,0.392007,-1.117113,0.034695,0.003917,0.091928,1.000000,0.000048,0.000028,-0.000008,0.999995,-0.002682,-0.000897,0.001074,-0.307406,-0.102473,0.123400,0.999996,0.002154,0.001788,-0.002144,0.999983,-0.005365,-0.001800,0.005361,0.999984
31092,2,0,-64.0000,3.490294,0.393510,9.181796,0.017150,0.007593,0.017980,0.004366,0.005668,-0.004623,-0.503171,0.387281,-1.115837,0.034906,0.003932,0.091817,1.000000,0.000022,0.000028,-0.000023,0.999996,-0.002653,-0.000895,0.001051,-0.304079,-0.102241,0.120684,0.999996,0.002106,0.001784,-0.002097,0.999984,-0.005307,-0.001796,0.005303,0.999984
31093,2,0,-65.0000,3.456664,0.393885,9.171711,-0.010553,0.007849,-0.003315,0.001538,0.008941,-0.002438,-0.506694,0.385922,-1.114097,0.034571,0.003938,0.091716,1.000000,0.000008,0.000045,-0.000012,0.999996,-0.002640,-0.000877,0.001030,-0.302581,-0.100138,0.118272,0.999996,0.002064,0.001748,-0.002055,0.999984,-0.005281,-0.001759,0.005277,0.999985
31094,2,0,-65.0000,3.477583,0.394892,9.160666,0.013125,0.009014,-0.006206,0.007382,0.006689,0.003171,-0.504797,0.390300,-1.112900,0.034779,0.003946,0.091606,1.000000,0.000037,0.000033,0.000016,0.999996,-0.002610,-0.000871,0.001048,-0.299223,-0.099509,0.120364,0.999996,0.002101,0.001737,-0.002092,0.999984,-0.005222,-0.001748,0.005219,0.999985
31095,2,0,-65.0000,3.466489,0.394141,9.193862,-0.008689,0.006294,0.020872,0.002514,0.010069,-0.002946,-0.508647,0.391309,-1.109595,0.034670,0.003940,0.091937,1.000000,0.000013,0.000050,-0.000015,0.999996,-0.002592,-0.000849,0.001017,-0.297109,-0.096942,0.116830,0.999996,0.002039,0.001692,-0.002030,0.999984,-0.005185,-0.001703,0.005182,0.999985
31096,2,0,-65.0000,3.476864,0.393873,9.215830,-0.006269,0.004786,0.045060,0.003024,0.010042,-0.000870,-0.507160,0.398324,-1.112856,0.034773,0.003937,0.092157,1.000000,0.000015,0.000050,-0.000004,0.999996,-0.002576,-0.000826,0.001010,-0.295302,-0.094299,0.115954,0.999997,0.002024,0.001646,-0.002015,0.999985,-0.005154,-0.001656,0.005151,0.999985
31097,2,0,-65.0000,3.464731,0.394874,9.194494,-0.009814,0.006281,0.020871,0.005250,0.007842,-0.000942,-0.498027,0.393679,-1.109400,0.034651,0.003946,0.091944,1.000000,0.000026,0.000039,-0.000005,0.999996,-0.002551,-0.000816,0.001010,-0.292415,-0.093207,0.115991,0.999997,0.002024,0.001627,-0.002016,0.999985,-0.005104,-0.001637,0.005100,0.999986
31098,2,0,-65.0000,3.485544,0.395896,9.183497,0.013863,0.007444,0.017985,0.003024,0.010042,-0.000869,-0.508183,0.394829,-1.117074,0.034860,0.003957,0.091833,1.000000,0.000015,0.000050,-0.000004,0.999996,-0.002535,-0.000793,0.001003,-0.290609,-0.090564,0.115115,0.999997,0.002009,0.001581,-0.002001,0.999985,-0.005072,-0.001591,0.005069,0.999986
31099,2,0,-65.0000,3.473045,0.421097,9.163010,0.009367,0.033269,-0.004583,0.000427,0.010040,-0.002400,-0.495955,0.386445,-1.116301,0.034735,0.004210,0.091628,1.000000,0.000002,0.000050,-0.000012,0.999996,-0.002530,-0.000770,0.000994,-0.289972,-0.087946,0.114131,0.999997,0.001992,0.001535,-0.001984,0.999985,-0.005061,-0.001545,0.005058,0.999986
31100,2,0,-65.0000,3.473146,0.395214,9.217175,-0.008484,0.004749,0.045058,0.005857,0.014473,0.001794,-0.504378,0.387978,-1.120955,0.034738,0.003950,0.092169,1.000000,0.000029,0.000072,0.000009,0.999996,-0.002506,-0.000725,0.001005,-0.287228,-0.082829,0.115354,0.999997,0.002013,0.001446,-0.002006,0.999985,-0.005013,-0.001456,0.005010,0.999986
31101,2,0,-65.0000,3.503956,0.397359,9.173404,0.036488,0.008534,0.015107,0.001912,0.011142,-0.000831,-0.498634,0.389139,-1.111949,0.035045,0.003973,0.091732,1.000000,0.000010,0.000056,-0.000004,0.999996,-0.002493,-0.000695,0.000989,-0.285762,-0.079378,0.113570,0.999997,0.001982,0.001385,-0.001975,0.999986,-0.004987,-0.001395,0.004985,0.999987
31102,2,0,-64.0000,3.448346,0.397140,9.174701,-0.015427,0.007643,-0.003322,0.006089,0.011198,-0.001920,-0.494132,0.383112,-1.112131,0.034489,0.003968,0.091745,1.000000,0.000030,0.000056,-0.000010,0.999996,-0.002461,-0.000666,0.000983,-0.282112,-0.076045,0.112775,0.999997,0.001968,0.001327,-0.001962,0.999986,-0.004924,-0.001337,0.004921,0.999987
31103,2,0,-65.0000,3.480201,0.397529,9.185453,0.011234,0.007276,0.017989,0.000800,0.012241,-0.000794,-0.502285,0.385597,-1.116112,0.034808,0.003975,0.091852,1.000000,0.000004,0.000061,-0.000004,0.999996,-0.002454,-0.000630,0.000969,-0.281315,-0.071949,0.111166,0.999997,0.001940,0.001256,-0.001934,0.999986,-0.004910,-0.001265,0.004907,0.999987
31104,2,0,-65.0000,3.467510,0.422823,9.165026,0.006758,0.033087,-0.004580,0.004977,0.012297,-0.001882,-0.507514,0.392320,-1.115384,0.034681,0.004226,0.091648,1.000000,0.000025,0.000061,-0.000009,0.999996,-0.002428,-0.000596,0.000960,-0.278280,-0.067988,0.110193,0.999997,0.001923,0.001187,-0.001917,0.999986,-0.004857,-0.001196,0.004855,0.999988
31105,2,0,-65.0000,3.488194,0.399450,9.153406,0.031414,0.009882,-0.009075,0.002751,0.014497,-0.001809,-0.498526,0.401867,-1.117787,0.034889,0.003993,0.091532,1.000000,0.000014,0.000072,-0.000009,0.999996,-0.002411,-0.000551,0.000941,-0.276338,-0.062869,0.107952,0.999998,0.001884,0.001097,-0.001879,0.999987,-0.004823,-0.001106,0.004821,0.999988
31106,2,0,-64.0000,3.465854,0.421680,9.220524,-0.012657,0.028867,0.046675,0.000663,0.014468,-0.001264,-0.501100,0.392901,-1.109550,0.034665,0.004216,0.092203,1.000000,0.000003,0.000072,-0.000006,0.999997,-0.002406,-0.000506,0.000928,-0.275761,-0.057685,0.106490,0.999998,0.001859,0.001007,-0.001854,0.999987,-0.004813,-0.001016,0.004811,0.999988
31107,2,0,-65.0000,3.496544,0.423571,9.176845,0.032300,0.032732,0.016738,0.001172,0.014442,0.000813,-0.502773,0.390509,-1.111345,0.034972,0.004235,0.091766,1.000000,0.000006,0.000072,0.000004,0.999997,-0.002404,-0.000461,0.000952,-0.275550,-0.052529,0.109166,0.999998,0.001905,0.000917,-0.001901,0.999987,-0.004809,-0.000926,0.004807,0.999988
31108,2,0,-65.0000,3.473642,0.398329,9.187901,0.008539,0.007194,0.017992,-0.005367,0.018812,0.001502,-0.501662,0.392553,-1.112912,0.034745,0.003986,0.091876,1.000000,-0.000027,0.000094,0.000008,0.999997,-0.002433,-0.000394,0.000942,-0.278806,-0.044933,0.108071,0.999998,0.001886,0.000784,-0.001882,0.999986,-0.004866,-0.000793,0.004865,0.999988
31109,2,0,-65.0000,3.472058,0.398070,9.188511,0.007988,0.007177,0.017992,-0.000957,0.015593,-0.003300,-0.501628,0.384759,-1.102592,0.034728,0.003981,0.091882,1.000000,-0.000005,0.000078,-0.000017,0.999997,-0.002432,-0.000344,0.000921,-0.278714,-0.039141,0.105620,0.999998,0.001843,0.000683,-0.001840,0.999986,-0.004864,-0.000692,0.004863,0.999988
31110,2,0,-65.0000,3.470511,0.397993,9.189098,0.007451,0.007158,0.017993,-0.003182,0.017792,-0.003227,-0.501969,0.392763,-1.123200,0.034713,0.003981,0.091888,1.000000,-0.000016,0.000089,-0.000016,0.999997,-0.002442,-0.000282,0.000893,-0.279835,-0.032009,0.102407,0.999998,0.001787,0.000559,-0.001785,0.999986,-0.004884,-0.000567,0.004883,0.999988
31111,2,0,-65.0000,3.447482,0.372895,9.200175,-0.016321,-0.018395,0.019240,-0.000585,0.017794,-0.001692,-0.507642,0.389428,-1.110880,0.034483,0.003729,0.091999,1.000000,-0.000003,0.000089,-0.000008,0.999997,-0.002441,-0.000220,0.000872,-0.279770,-0.024969,0.100007,0.999998,0.001745,0.000436,-0.001743,0.999987,-0.004883,-0.000444,0.004882,0.999988
31112,2,0,-66.0000,3.467217,0.398029,9.190340,0.006368,0.007102,0.017993,0.000997,0.017848,-0.004310,-0.516006,0.392157,-1.109445,0.034680,0.003979,0.091900,1.000000,0.000005,0.000089,-0.000022,0.999997,-0.002430,-0.000157,0.000847,-0.278434,-0.017774,0.097058,0.999999,0.001694,0.000310,-0.001692,0.999987,-0.004860,-0.000318,0.004859,0.999988
31113,2,0,-65.0000,3.465785,0.374017,9.190170,0.006729,-0.017250,0.016374,0.004570,0.018977,-0.003281,-0.504016,0.390010,-1.117060,0.034667,0.003737,0.091898,1.000000,0.000023,0.000095,-0.000016,0.999997,-0.002404,-0.000093,0.000818,-0.275443,-0.010486,0.093808,0.999999,0.001637,0.000183,-0.001636,0.999987,-0.004807,-0.000191,0.004807,0.999988
31114,2,0,-65.0000,3.452217,0.423941,9.170746,0.001283,0.032902,-0.004577,0.004063,0.019003,-0.005356,-0.500479,0.402122,-1.113285,0.034531,0.004237,0.091704,1.000000,0.000020,0.000095,-0.000027,0.999997,-0.002376,-0.000025,0.000794,-0.272264,-0.002601,0.090943,0.999999,0.001587,0.000045,-0.001587,0.999987,-0.004752,-0.000053,0.004752,0.999989
31115,2,0,-65.0000,3.483378,0.424509,9.181808,0.027883,0.032594,0.016752,0.005077,0.018950,-0.001201,-0.496878,0.385098,-1.113845,0.034843,0.004243,0.091815,1.000000,0.000025,0.000095,-0.000006,0.999997,-0.002352,0.000042,0.000806,-0.269535,0.005084,0.092357,0.999999,0.001612,-0.000089,-0.001612,0.999988,-0.004704,0.000081,0.004704,0.999989
31116,2,0,-64.0000,3.460405,0.375539,9.192135,0.005106,-0.017280,0.016375,0.001332,0.021227,-0.007356,-0.499619,0.387026,-1.119737,0.034614,0.003754,0.091918,1.000000,0.000007,0.000106,-0.000037,0.999997,-0.002334,0.000123,0.000768,-0.267439,0.014289,0.087922,0.999999,0.001535,-0.000249,-0.001536,0.999988,-0.004668,0.000242,0.004668,0.999989
31117,2,0,-65.0000,3.468816,0.377134,9.159988,0.025881,-0.014678,-0.010676,0.003322,0.022302,-0.003707,-0.497841,0.388024,-1.114058,0.034698,0.003769,0.091596,1.000000,0.000017,0.000112,-0.000019,0.999997,-0.002311,0.000209,0.000743,-0.264767,0.024155,0.085035,0.999999,0.001484,-0.000422,-0.001486,0.999988,-0.004621,0.000415,0.004622,0.999989
31118,2,0,-64.0000,3.444611,0.425880,9.173516,-0.000846,0.032811,-0.004577,0.004536,0.020154,-0.007929,-0.510816,0.389894,-1.117010,0.034456,0.004255,0.091732,1.000000,0.000023,0.000101,-0.000040,0.999997,-0.002276,0.000284,0.000707,-0.260830,0.032764,0.080915,0.999999,0.001412,-0.000572,-0.001415,0.999989,-0.004552,0.000565,0.004553,0.999989
31119,2,0,-65.0000,3.454613,0.352882,9.193558,0.004477,-0.041737,0.014755,0.007365,0.024584,-0.005254,-0.499077,0.381812,-1.117711,0.034558,0.003525,0.091931,1.000000,0.000037,0.000123,-0.000026,0.999997,-0.002233,0.000380,0.000682,-0.255858,0.043686,0.078002,0.999999,0.001361,-0.000762,-0.001365,0.999989,-0.004466,0.000756,0.004467,0.999990
31120,2,0,-64.0000,3.429550,0.450799,9.208731,-0.024223,0.054435,0.024091,0.007467,0.023536,-0.009439,-0.499381,0.394539,-1.112737,0.034307,0.004503,0.092083,1.000000,0.000037,0.000118,-0.000047,0.999997,-0.002183,0.000472,0.000645,-0.250078,0.054271,0.073743,0.999999,0.001287,-0.000947,-0.001291,0.999990,-0.004365,0.000942,0.004366,0.999990
31121,2,0,-65.0000,3.450235,0.354962,9.195122,0.003405,-0.041794,0.014755,0.011681,0.022413,-0.005859,-0.505761,0.390452,-1.122132,0.034513,0.003543,0.091948,1.000000,0.000058,0.000112,-0.000029,0.999997,-0.002118,0.000558,0.000630,-0.242627,0.064150,0.072027,0.999999,0.001257,-0.001120,-0.001262,0.999990,-0.004235,0.001114,0.004236,0.999990
31122,2,0,-64.0000,3.447558,0.405274,9.197417,0.000898,0.006868,0.017996,0.014851,0.022520,-0.011088,-0.492615,0.388606,-1.119636,0.034486,0.004044,0.091971,1.000000,0.000074,0.000113,-0.000055,0.999998,-0.002030,0.000646,0.000598,-0.232546,0.074202,0.068352,0.999998,0.001193,-0.001295,-0.001198,0.999991,-0.004059,0.001290,0.004060,0.999991
31123,2,0,-65.0000,3.445255,0.431513,9.198868,-0.000606,0.031168,0.019616,0.017582,0.020295,-0.009078,-0.493118,0.398070,-1.118298,0.034462,0.004305,0.091986,1.000000,0.000088,0.000101,-0.000045,0.999998,-0.001931,0.000724,0.000582,-0.221254,0.083036,0.066538,0.999998,0.001161,-0.001449,-0.001167,0.999992,-0.003862,0.001445,0.003863,0.999991
31124,2,0,-64.0000,3.433416,0.383395,9.230835,-0.020474,-0.020192,0.043419,0.017480,0.021343,-0.004886,-0.502687,0.392262,-1.112268,0.034344,0.003825,0.092305,1.000000,0.000087,0.000107,-0.000024,0.999998,-0.001842,0.000804,0.000583,-0.210995,0.092262,0.066692,0.999998,0.001164,-0.001610,-0.001170,0.999993,-0.003683,0.001606,0.003684,0.999992
31125,2,0,-65.0000,3.440378,0.508303,9.202504,-0.004632,0.104184,0.024476,0.015863,0.022466,-0.006924,-0.492720,0.390939,-1.111723,0.034414,0.005075,0.092022,1.000000,0.000079,0.000112,-0.000035,0.999998,-0.001758,0.000891,0.000594,-0.201387,0.102191,0.067842,0.999998,0.001184,-0.001784,-0.001190,0.999993,-0.003515,0.001779,0.003517,0.999992
31126,2,0,-64.0000,3.450372,0.389055,9.166454,0.021057,-0.014875,-0.010665,0.013910,0.020210,-0.005913,-0.494462,0.390950,-1.112639,0.034513,0.003883,0.091661,1.000000,0.000070,0.000101,-0.000030,0.999998,-0.001683,0.000966,0.000584,-0.192828,0.110792,0.066703,0.999997,0.001164,-0.001934,-0.001171,0.999994,-0.003365,0.001930,0.003368,0.999992
31127,2,0,-65.0000,3.437188,0.438273,9.201566,-0.002732,0.031138,0.019616,0.016233,0.024666,-0.005309,-0.499501,0.384994,-1.117969,0.034383,0.004374,0.092012,1.000000,0.000081,0.000123,-0.000027,0.999998,-0.001600,0.001064,0.000597,-0.183255,0.122038,0.068235,0.999997,0.001191,-0.002130,-0.001198,0.999994,-0.003198,0.002126,0.003201,0.999993
31128,2,0,-65.0000,3.413843,0.390901,9.211964,-0.025520,-0.018729,0.019220,0.023618,0.023651,-0.006951,-0.504469,0.386282,-1.115854,0.034149,0.003897,0.092116,1.000000,0.000118,0.000118,-0.000035,0.999998,-0.001478,0.001157,0.000600,-0.169311,0.132641,0.068581,0.999997,0.001197,-0.002315,-0.001204,0.999995,-0.002955,0.002311,0.002958,0.999993
31129,2,0,-65.0000,3.444268,0.370960,9.167841,0.020430,-0.039285,-0.012282,0.031033,0.021460,-0.003934,-0.498827,0.387560,-1.120457,0.034453,0.003695,0.091675,1.000000,0.000155,0.000107,-0.000020,0.999998,-0.001326,0.001236,0.000618,-0.151813,0.141779,0.070684,0.999996,0.001234,-0.002475,-0.001240,0.999996,-0.002650,0.002471,0.002653,0.999993
31130,2,0,-64.0000,3.453155,0.398426,9.190883,0.021822,-0.016456,0.013533,0.044585,0.021579,-0.002990,-0.502045,0.388256,-1.115364,0.034542,0.003963,0.091906,1.000000,0.000223,0.000108,-0.000015,0.999998,-0.001113,0.001318,0.000676,-0.127385,0.151104,0.077335,0.999996,0.001350,-0.002637,-0.001356,0.999997,-0.002223,0.002634,0.002227,0.999994
31131,2,0,-64.0000,3.452110,0.329816,9.189227,0.024217,-0.089506,0.008674,0.050966,0.020607,-0.008771,-0.499659,0.387909,-1.123102,0.034531,0.003273,0.091890,1.000000,0.000255,0.000103,-0.000044,0.999998,-0.000859,0.001395,0.000717,-0.098309,0.159934,0.081994,0.999995,0.001431,-0.002791,-0.001436,0.999997,-0.001716,0.002789,0.001720,0.999995
31132,2,0,-64.0000,3.460297,0.408109,9.213652,0.023642,-0.017996,0.037729,0.067878,0.023962,0.001604,-0.487268,0.388467,-1.119984,0.034614,0.004050,0.092134,1.000000,0.000339,0.000120,0.000008,0.999998,-0.000545,0.001487,0.000837,-0.062312,0.170500,0.095869,0.999994,0.001673,-0.002976,-0.001676,0.999998,-0.001088,0.002974,0.001093,0.999995
31133,2,0,-64.0000,3.446448,0.439799,9.193232,0.019252,0.007809,0.015156,0.078176,0.027487,-0.006164,-0.493230,0.390718,-1.112448,0.034477,0.004361,0.091929,1.000000,0.000391,0.000137,-0.000031,0.999998,-0.000169,0.001601,0.000952,-0.019203,0.183491,0.109077,0.999993,0.001904,-0.003203,-0.001905,0.999998,-0.000335,0.003202,0.000341,0.999995
31134,2,0,-64.0000,3.476188,0.471731,9.205179,0.044861,0.031803,0.038135,0.083890,0.034010,0.008545,-0.503500,0.386782,-1.121208,0.034777,0.004680,0.092048,1.000000,0.000419,0.000170,0.000043,0.999998,0.000207,0.001742,0.001136,0.023918,0.199597,0.130171,0.999991,0.002272,-0.003484,-0.002270,0.999997,0.000417,0.003485,-0.000410,0.999994
31135,2,0,-63.0000,3.495790,0.405369,9.247602,0.053058,-0.044208,0.081667,0.090000,0.045181,0.006714,-0.504277,0.385086,-1.116365,0.034979,0.004013,0.092470,1.000000,0.000450,0.000226,0.000034,0.999997,0.000613,0.001938,0.001332,0.070495,0.222017,0.152796,0.999989,0.002667,-0.003875,-0.002662,0.999996,0.001230,0.003878,-0.001220,0.999992
31136,2,0,-64.0000,3.468719,0.439026,9.206118,0.045731,-0.016901,0.034900,0.099371,0.052944,0.013651,-0.494092,0.389907,-1.121952,0.034711,0.004347,0.092054,1.000000,0.000497,0.000265,0.000068,0.999996,0.001050,0.002173,0.001571,0.120752,0.248775,0.180274,0.999986,0.003146,-0.004342,-0.003137,0.999993,0.002108,0.004349,-0.002094,0.999988
31137,2,0,-63.0000,3.497201,0.374676,9.216471,0.075231,-0.090256,0.051405,0.100328,0.062930,0.013403,-0.494757,0.376587,-1.119488,0.035001,0.003703,0.092156,1.000000,0.000502,0.000315,0.000067,0.999994,0.001491,0.002456,0.001819,0.171411,0.281068,0.208806,0.999981,0.003644,-0.004906,-0.003630,0.999989,0.002992,0.004916,-0.002974,0.999983
31138,2,0,-63.0000,3.435715,0.456448,9.220581,0.020408,-0.018090,0.037736,0.110429,0.068545,0.014081,-0.492570,0.373916,-1.119063,0.034388,0.004516,0.092197,1.000000,0.000552,0.000343,0.000070,0.999992,0.001979,0.002768,0.002082,0.227408,0.316683,0.239222,0.999976,0.004175,-0.005527,-0.004153,0.999983,0.003969,0.005544,-0.003946,0.999977
31139,2,0,-63.0000,3.429358,0.466347,9.222452,0.019870,-0.018161,0.037737,0.115002,0.070777,0.014723,-0.494841,0.376948,-1.127595,0.034326,0.004613,0.092215,1.000000,0.000575,0.000354,0.000074,0.999989,0.002489,0.003091,0.002339,0.286030,0.353515,0.268958,0.999970,0.004694,-0.006170,-0.004663,0.999977,0.004992,0.006193,-0.004963,0.999969
31140,2,0,-63.0000,3.401331,0.451452,9.234922,-0.003909,-0.043683,0.038947,0.112296,0.072970,0.012782,-0.489503,0.380594,-1.125142,0.034047,0.004465,0.092339,1.000000,0.000561,0.000365,0.000064,0.999986,0.002987,0.003425,0.002601,0.343286,0.391637,0.299253,0.999963,0.005223,-0.006835,-0.005182,0.999969,0.005991,0.006866,-0.005956,0.999959
31141,2,0,-62.0000,3.439346,0.388593,9.267854,0.028512,-0.118581,0.079650,0.124268,0.074166,0.011851,-0.496418,0.385564,-1.124092,0.034428,0.003830,0.092668,1.000000,0.000621,0.000371,0.000059,0.999982,0.003544,0.003767,0.002876,0.407350,0.430488,0.331136,0.999955,0.005779,-0.007513,-0.005726,0.999958,0.007109,0.007554,-0.007066,0.999947
31142,2,0,-62.0000,3.443272,0.400276,9.291755,0.030867,-0.120095,0.103847,0.146735,0.080888,0.022520,-0.492921,0.372708,-1.119517,0.034470,0.003938,0.092907,1.000000,0.000734,0.000404,0.000113,0.999977,0.004186,0.004139,0.003246,0.481180,0.472712,0.373911,0.999945,0.006526,-0.008250,-0.006456,0.999944,0.008398,0.008305,-0.008344,0.999931
31143,2,0,-62.0000,3.392614,0.365579,9.260480,0.002232,-0.166969,0.055041,0.171926,0.079952,0.021132,-0.495383,0.371803,-1.127539,0.033963,0.003580,0.092594,1.000000,0.000860,0.000400,0.000106,0.999971,0.004948,0.004505,0.003648,0.568879,0.514121,0.420606,0.999933,0.007341,-0.008973,-0.007251,0.999924,0.009928,0.009045,-0.009863,0.999910
31144,2,0,-62.0000,3.406641,0.430804,9.252233,0.023962,-0.117148,0.055458,0.191352,0.077786,0.028104,-0.482211,0.372164,-1.130665,0.034102,0.004224,0.092513,0.999999,0.000957,0.000389,0.000141,0.999963,0.005789,0.004860,0.004120,0.665718,0.554159,0.475393,0.999919,0.008297,-0.009672,-0.008184,0.999899,0.011618,0.009767,-0.011538,0.999886
31145,2,0,-62.0000,3.311908,0.520476,9.189586,-0.039508,-0.040526,-0.030821,0.192082,0.063221,0.044708,-0.485960,0.375508,-1.124853,0.033147,0.005124,0.091890,0.999999,0.000960,0.000316,0.000224,0.999954,0.006609,0.005138,0.004658,0.760107,0.585234,0.537633,0.999904,0.009383,-0.010214,-0.009247,0.999869,0.013265,0.010337,-0.013170,0.999860
31146,2,0,-62.0000,3.270826,0.780016,9.182820,-0.076900,0.203199,-0.035997,0.178418,0.066438,0.038647,-0.489331,0.371154,-1.138092,0.032737,0.007725,0.091824,1.000000,0.000892,0.000332,0.000193,0.999945,0.007373,0.005434,0.005154,0.848091,0.618273,0.595206,0.999888,0.010388,-0.010791,-0.010227,0.999838,0.014801,0.010943,-0.014689,0.999832
31147,2,0,-62.0000,3.254288,0.818285,9.161974,-0.081289,0.228999,-0.058576,0.148740,0.056224,0.039482,-0.483490,0.371502,-1.127263,0.032567,0.008121,0.091617,1.000000,0.000744,0.000281,0.000197,0.999936,0.007998,0.005678,0.005599,0.920152,0.645440,0.646786,0.999873,0.011288,-0.011265,-0.011106,0.999809,0.016058,0.011444,-0.015931,0.999808
31148,2,0,-61.0000,3.195563,0.804334,9.162411,-0.132171,0.203820,-0.078761,0.118052,0.046043,0.036069,-0.485159,0.368773,-1.126985,0.031975,0.007995,0.091621,1.000000,0.000590,0.000230,0.000180,0.999929,0.008485,0.005871,0.005973,0.976366,0.666966,0.690182,0.999860,0.012045,-0.011640,-0.011846,0.999785,0.017039,0.011843,-0.016899,0.999787
31149,2,0,-61.0000,3.247122,0.788672,9.217138,-0.098848,0.176119,-0.010614,0.098838,0.033695,0.043596,-0.486629,0.367751,-1.126545,0.032485,0.007848,0.092170,1.000000,0.000494,0.000168,0.000218,0.999923,0.008871,0.006001,0.006344,1.020965,0.681138,0.733079,0.999847,0.012793,-0.011888,-0.012580,0.999762,0.017817,0.012113,-0.017665,0.999771
31150,2,0,-61.0000,3.266815,0.795807,9.206358,-0.075150,0.177255,-0.013435,0.081835,0.020277,0.046409,-0.485292,0.374648,-1.121774,0.032676,0.007928,0.092064,1.000000,0.000409,0.000101,0.000232,0.999917,0.009174,0.006062,0.006697,1.055910,0.687613,0.773818,0.999837,0.013504,-0.012001,-0.013282,0.999742,0.018427,0.012247,-0.018264,0.999758
31151,2,0,-61.0000,3.210795,0.849209,9.206631,-0.128988,0.225110,-0.028767,0.061486,0.010179,0.049224,-0.481497,0.370457,-1.130484,0.032111,0.008472,0.092067,1.000000,0.000307,0.000051,0.000246,0.999913,0.009376,0.006071,0.007024,1.079387,0.688047,0.811466,0.999828,0.014161,-0.012008,-0.013934,0.999725,0.018836,0.012272,-0.018666,0.999750
31152,2,0,-60.0000,3.211153,0.827751,9.151583,-0.110078,0.204895,-0.081601,0.031011,-0.005498,0.051313,-0.480226,0.372640,-1.124150,0.032107,0.008272,0.091518,1.000000,0.000155,-0.000027,0.000257,0.999911,0.009435,0.006001,0.007306,1.086231,0.679765,0.843654,0.999821,0.014723,-0.011864,-0.014496,0.999715,0.018956,0.012140,-0.018780,0.999750
31153,2,0,-60.0000,3.169279,0.802804,9.172774,-0.158078,0.178228,-0.077604,0.007569,-0.018938,0.064452,-0.483630,0.372732,-1.122031,0.031682,0.008035,0.091731,1.000000,0.000038,-0.000095,0.000322,0.999910,0.009362,0.005861,0.007611,1.077981,0.663402,0.878504,0.999815,0.015331,-0.011578,-0.015112,0.999709,0.018812,0.011863,-0.018634,0.999756
31154,2,0,-60.0000,3.127457,0.995005,9.140327,-0.196351,0.374773,-0.110234,-0.030326,-0.040157,0.058565,-0.487850,0.375682,-1.123988,0.031253,0.009973,0.091408,1.000000,-0.000152,-0.000201,0.000293,0.999912,0.009125,0.005615,0.007811,1.050671,0.635274,0.900960,0.999815,0.015723,-0.011087,-0.015518,0.999711,0.018336,0.011372,-0.018160,0.999770
31155,2,0,-60.0000,3.155394,0.817783,9.127293,-0.165889,0.205543,-0.124396,-0.072169,-0.058073,0.059505,-0.484303,0.377320,-1.126488,0.031525,0.008220,0.091279,1.000000,-0.000361,-0.000290,0.000298,0.999917,0.008690,0.005277,0.007942,1.000660,0.596798,0.915361,0.999818,0.015975,-0.010416,-0.015791,0.999723,0.017463,0.010692,-0.017295,0.999793
31156,2,0,-60.0000,3.064380,0.831497,9.147899,-0.267154,0.226749,-0.135752,-0.100279,-0.090399,0.076073,-0.484771,0.369528,-1.127323,0.030599,0.008372,0.091489,1.000000,-0.000501,-0.000452,0.000380,0.999923,0.008101,0.004775,0.008089,0.932695,0.539581,0.931367,0.999824,0.016254,-0.009417,-0.016099,0.999738,0.016277,0.009679,-0.016123,0.999823
31157,2,0,-60.0000,3.250336,0.623799,9.219876,-0.121548,0.028778,-0.017571,-0.122341,-0.116032,0.080872,-0.486235,0.377065,-1.132449,0.032447,0.006308,0.092214,1.000000,-0.000612,-0.000580,0.000404,0.999930,0.007403,0.004142,0.008214,0.852187,0.467590,0.944794,0.999831,0.016488,-0.008161,-0.016366,0.999755,0.014872,0.008404,-0.014736,0.999856
31158,2,0,-60.0000,3.196855,0.536523,9.249063,-0.191843,-0.047722,-0.014024,-0.114414,-0.124905,0.076782,-0.490838,0.381697,-1.122976,0.031909,0.005430,0.092507,1.000000,-0.000572,-0.000625,0.000384,0.999937,0.006750,0.003466,0.008331,0.776764,0.390698,0.957319,0.999837,0.016707,-0.006819,-0.016614,0.999770,0.013556,0.007044,-0.013441,0.999885
31159,2,0,-60.0000,3.178918,0.303752,9.341243,-0.247719,-0.274755,0.052388,-0.091946,-0.159256,0.072902,-0.484791,0.375973,-1.129351,0.031714,0.003092,0.093436,1.000000,-0.000460,-0.000796,0.000365,0.999941,0.006213,0.002620,0.008465,0.714482,0.294205,0.971853,0.999843,0.016961,-0.005135,-0.016896,0.999779,0.012470,0.005345,-0.012381,0.999909
31160,2,0,-60.0000,3.175591,0.195359,9.509528,-0.324064,-0.385722,0.202293,-0.047274,-0.198003,0.069062,-0.497373,0.384518,-1.122938,0.031661,0.001987,0.095126,0.999999,-0.000236,-0.000990,0.000345,0.999944,0.005897,0.001584,0.008644,0.677313,0.175628,0.991557,0.999846,0.017305,-0.003065,-0.017268,0.999781,0.011821,0.003269,-0.011766,0.999925
31161,2,0,-60.0000,3.055798,0.312559,9.548764,-0.477675,-0.269454,0.202983,0.004022,-0.260055,0.060255,-0.494843,0.388676,-1.122036,0.030433,0.003133,0.095527,0.999999,0.000020,-0.001300,0.000301,0.999944,0.005845,0.000242,0.008858,0.670047,0.021762,1.015206,0.999843,0.017718,-0.000380,-0.017712,0.999775,0.011694,0.000587,-0.011686,0.999932
31162,2,0,-60.0000,2.903919,0.043126,9.822535,-0.738210,-0.561499,0.388119,0.080454,-0.357635,0.044992,-0.494205,0.380627,-1.111241,0.028863,0.000398,0.098277,0.999998,0.000402,-0.001788,0.000225,0.999938,0.006190,-0.001581,0.009108,0.707643,-0.187612,1.042597,0.999829,0.018196,0.003274,-0.018235,0.999757,0.012350,-0.003049,-0.012408,0.999918
31163,2,0,-60.0000,2.570709,0.295379,10.200982,-1.237124,-0.352722,0.632439,0.187560,-0.504229,0.027768,-0.505411,0.382147,-1.105713,0.025449,0.002862,0.102077,0.999996,0.000938,-0.002521,0.000139,0.999922,0.007083,-0.004127,0.009445,0.807224,-0.480555,1.078957,0.999788,0.018830,0.008387,-0.018947,0.999721,0.014088,-0.008120,-0.014244,0.999866
31164,2,0,-60.0000,1.978049,0.705511,10.617551,-2.019824,-0.004545,0.820397,0.274477,-0.739145,0.022976,-0.520980,0.375237,-1.110089,0.019387,0.006912,0.106257,0.999992,0.001372,-0.003696,0.000115,0.999885,0.008424,-0.007842,0.009838,0.956527,-0.908003,1.119842,0.999683,0.019541,0.015847,-0.019805,0.999665,0.016692,-0.015515,-0.017000,0.999735
31165,2,0,-60.0000,1.290046,1.173936,11.356583,-3.045247,0.366281,1.260039,0.344046,-1.057339,0.046530,-0.525308,0.367817,-1.115227,0.012297,0.011547,0.113652,0.999985,0.001720,-0.005287,0.000233,0.999809,0.010088,-0.013152,0.010378,1.140637,-1.518983,1.174314,0.999439,0.020487,0.026508,-0.021018,0.999581,0.019900,-0.026089,-0.020446,0.999451
31166,2,0,-61.0000,1.341139,0.019646,11.917877,-3.307479,-0.872069,1.682183,0.414372,-1.494114,0.085969,-0.543669,0.372587,-1.097600,0.012521,-0.000045,0.119275,0.999970,0.002072,-0.007470,0.000430,0.999652,0.012070,-0.020648,0.011113,1.357619,-2.381306,1.245657,0.998900,0.021720,0.041550,-0.022717,0.999462,0.023672,-0.041013,-0.024590,0.998856
31167,2,0,-61.0000,1.504525,0.182964,12.255916,-3.495726,-0.802939,2.004007,0.678160,-1.965272,0.097307,-0.571844,0.356710,-1.092026,0.013839,0.001421,0.122704,0.999946,0.003391,-0.009826,0.000487,0.999343,0.015322,-0.030489,0.012250,1.715323,-3.515193,1.351960,0.997841,0.023550,0.061313,-0.025418,0.999230,0.029877,-0.060562,-0.031371,0.997671
31168,2,0,-61.0000,1.382081,1.243386,13.192452,-4.307635,0.067316,2.793910,0.894994,-2.493812,0.120480,-0.585959,0.355511,-1.075980,0.012167,0.011851,0.132137,0.999912,0.004475,-0.012469,0.000602,0.998790,0.019611,-0.042961,0.013753,2.185496,-4.954119,1.483282,0.995930,0.025789,0.086358,-0.029159,0.998853,0.037992,-0.085279,-0.040356,0.995539
31169,2,0,-62.0000,2.171164,-0.268066,12.895024,-3.735078,-1.539324,2.626464,1.138709,-3.018105,0.149853,-0.621027,0.346253,-1.062476,0.019765,-0.003401,0.129240,0.999870,0.005693,-0.015090,0.000749,0.997877,0.025044,-0.058045,0.015679,2.779539,-6.697626,1.637692,0.992770,0.028384,0.116630,-0.034199,0.998254,0.048162,-0.115059,-0.051803,0.992007
31170,2,0,-62.0000,2.647653,1.383584,13.620225,-4.143997,-0.144390,3.499694,1.393480,-3.388792,0.313302,-0.654161,0.332209,-1.045094,0.024142,0.012923,0.136717,0.999831,0.006967,-0.016943,0.001566,0.996513,0.031368,-0.075006,0.018754,3.462341,-8.665474,1.893953,0.988045,0.032672,0.150665,-0.042083,0.997329,0.059703,-0.148312,-0.065330,0.986780
31171,2,0,-62.0000,2.828906,1.555896,13.786595,-4.550125,-0.191067,3.593563,1.433817,-3.662047,0.494244,-0.686128,0.326259,-1.016938,0.025720,0.014633,0.138460,0.999804,0.007169,-0.018309,0.002471,0.994666,0.037536,-0.093379,0.022605,4.112900,-10.804547,2.214669,0.981539,0.037959,0.187459,-0.051979,0.996160,0.070451,-0.184065,-0.078894,0.979743
31172,2,0,-61.0000,4.470699,1.413439,13.632855,-3.562019,-0.507185,4.146789,1.587158,-3.675351,0.682127,-0.721138,0.314525,-0.991788,0.042145,0.013194,0.137226,0.999794,0.007935,-0.018375,0.003410,0.992367,0.043971,-0.111851,0.027636,4.773182,-12.969055,2.647546,0.973451,0.045014,0.224425,-0.064687,0.994606,0.081089,-0.219564,-0.093453,0.971112
31173,2,0,-60.0000,5.542189,2.669230,14.155220,-3.585566,0.426234,5.192092,1.879042,-3.375217,0.768347,-0.746889,0.304150,-0.960740,0.052920,0.025562,0.142703,0.999806,0.009395,-0.016875,0.003841,0.989754,0.051420,-0.128843,0.033797,5.529236,-14.982317,3.183810,0.964515,0.053651,0.258521,-0.080152,0.992427,0.093078,-0.251569,-0.110496,0.961511
