// General information: 
//  MT Manager version: 2020.3.0 
//  XDA version: 2020.3.0 build 5439 rev 106958 built on 2020-11-10
// Device information: 
//  DeviceId: 00B46A0D
//  ProductCode: MTW2-3A7G6
//  Firmware Version: 4.4.0
//  Hardware Version: 2.0.0
// Device settings: 
//  Filter Profile: human(46.1)
//  Option Flags: Orientation Smoother Disabled, Position/Velocity Smoother Disabled, Continuous Zero Rotation Update Disabled, AHS Disabled, ICC Disabled
// Coordinate system: ENU
PacketCounter,StatusWord,ClippingFlags,RSSI,Acc_X,Acc_Y,Acc_Z,FreeAcc_E,FreeAcc_N,FreeAcc_U,Gyr_X,Gyr_Y,Gyr_Z,Mag_X,Mag_Y,Mag_Z,VelInc_X,VelInc_Y,VelInc_Z,OriInc_q0,OriInc_q1,OriInc_q2,OriInc_q3,Quat_q0,Quat_q1,Quat_q2,Quat_q3,Roll,Pitch,Yaw,Mat[1][1],Mat[2][1],Mat[3][1],Mat[1][2],Mat[2][2],Mat[3][2],Mat[1][3],Mat[2][3],Mat[3][3]
30829,2,0,-60.0000,3.220537,-1.956243,9.108587,-0.006758,0.007963,0.044543,0.035063,0.006426,-0.020512,-0.510054,0.220547,-1.209350,0.032206,-0.019582,0.091081,1.000000,0.000175,0.000032,-0.000103,-0.999999,-0.000037,-0.000937,-0.000650,0.004285,0.107404,0.074513,0.999997,0.001300,-0.001875,-0.001300,0.999999,0.000075,0.001875,-0.000072,0.999998
30830,2,0,-59.0000,3.266315,-1.979540,9.099584,0.038339,-0.020287,0.055845,0.042993,0.008917,-0.016221,-0.506887,0.234276,-1.205827,0.032666,-0.019818,0.090990,1.000000,0.000215,0.000045,-0.000081,-0.999999,-0.000237,-0.000973,-0.000638,0.027206,0.111453,0.073158,0.999997,0.001277,-0.001945,-0.001276,0.999999,0.000475,0.001946,-0.000472,0.999998
30831,2,0,-60.0000,3.249813,-1.918004,9.107990,0.024909,0.037766,0.045987,0.040674,0.007460,-0.021004,-0.506164,0.237009,-1.201967,0.032500,-0.019202,0.091075,1.000000,0.000203,0.000037,-0.000105,-0.999999,-0.000431,-0.001001,-0.000607,0.049403,0.114706,0.069660,0.999997,0.001216,-0.002002,-0.001214,0.999999,0.000862,0.002003,-0.000860,0.999998
30832,2,0,-59.0000,3.260620,-1.927671,9.079465,0.044188,0.018699,0.025093,0.038440,0.008894,-0.020823,-0.500002,0.233640,-1.207778,0.032608,-0.019298,0.090789,1.000000,0.000192,0.000044,-0.000104,-0.999999,-0.000611,-0.001035,-0.000607,0.070035,0.118527,0.069623,0.999997,0.001215,-0.002069,-0.001213,0.999999,0.001222,0.002070,-0.001220,0.999997
30833,2,0,-59.0000,3.257639,-1.902049,9.069357,0.047132,0.038155,0.009713,0.037297,0.009645,-0.016158,-0.504178,0.233176,-1.198020,0.032579,-0.019040,0.090688,1.000000,0.000186,0.000048,-0.000081,-0.999999,-0.000781,-0.001079,-0.000591,0.089601,0.123590,0.067807,0.999997,0.001183,-0.002157,-0.001180,0.999998,0.001564,0.002159,-0.001561,0.999996
30834,2,0,-59.0000,3.224129,-1.881511,9.110398,0.004566,0.063755,0.032634,0.031691,0.008623,-0.015671,-0.502304,0.225100,-1.206366,0.032244,-0.018832,0.091100,1.000000,0.000158,0.000043,-0.000078,-0.999999,-0.000922,-0.001119,-0.000590,0.105731,0.128211,0.067763,0.999997,0.001183,-0.002238,-0.001179,0.999998,0.001845,0.002240,-0.001843,0.999996
30835,2,0,-60.0000,3.237379,-1.913941,9.092810,0.021225,0.025845,0.027123,0.026678,0.006392,-0.012731,-0.514459,0.230565,-1.203387,0.032375,-0.019154,0.090925,1.000000,0.000133,0.000032,-0.000064,-0.999999,-0.001036,-0.001151,-0.000576,0.118791,0.131866,0.066128,0.999997,0.001154,-0.002301,-0.001149,0.999997,0.002073,0.002304,-0.002071,0.999995
30836,2,0,-60.0000,3.245117,-1.878748,9.101320,0.028844,0.060047,0.030588,0.021475,0.007624,-0.010631,-0.500045,0.227884,-1.201719,0.032454,-0.018799,0.091010,1.000000,0.000107,0.000038,-0.000053,-0.999999,-0.001124,-0.001188,-0.000564,0.128827,0.136053,0.064807,0.999997,0.001131,-0.002375,-0.001126,0.999997,0.002248,0.002377,-0.002246,0.999995
30837,2,0,-60.0000,3.256119,-1.890764,9.072262,0.048169,0.040907,0.009697,0.015422,-0.000224,-0.007143,-0.508157,0.224758,-1.208857,0.032560,-0.018916,0.090721,1.000000,0.000077,-0.000001,-0.000036,-0.999998,-0.001173,-0.001193,-0.000564,0.134508,0.136675,0.064754,0.999997,0.001130,-0.002385,-0.001125,0.999997,0.002348,0.002388,-0.002345,0.999994
30838,2,0,-59.0000,3.236905,-1.908093,9.094207,0.021973,0.027828,0.027115,0.008898,0.000589,-0.005758,-0.503979,0.232540,-1.202301,0.032369,-0.019086,0.090941,1.000000,0.000044,0.000003,-0.000029,-0.999998,-0.001192,-0.001204,-0.000548,0.136672,0.137880,0.063012,0.999996,0.001100,-0.002406,-0.001094,0.999997,0.002385,0.002409,-0.002383,0.999994
30839,2,0,-59.0000,3.250502,-1.942481,9.076128,0.038634,-0.010083,0.021615,0.011675,0.004251,-0.008519,-0.502050,0.224487,-1.205609,0.032506,-0.019431,0.090759,1.000000,0.000058,0.000021,-0.000043,-0.999998,-0.001228,-0.001230,-0.000531,0.140752,0.140847,0.061020,0.999996,0.001065,-0.002458,-0.001059,0.999996,0.002457,0.002461,-0.002454,0.999994
30840,2,0,-59.0000,3.250238,-1.941155,9.076506,0.038907,-0.009405,0.021614,0.012174,0.004779,-0.006487,-0.507450,0.230911,-1.196791,0.032504,-0.019418,0.090763,1.000000,0.000061,0.000024,-0.000032,-0.999998,-0.001263,-0.001260,-0.000526,0.144779,0.144342,0.060449,0.999996,0.001055,-0.002519,-0.001049,0.999996,0.002527,0.002522,-0.002524,0.999994
30841,2,0,-59.0000,3.241342,-1.947516,9.117535,0.017470,-0.007661,0.057885,0.010125,0.002740,-0.005464,-0.505663,0.224594,-1.202661,0.032414,-0.019481,0.091174,1.000000,0.000051,0.000014,-0.000027,-0.999998,-0.001286,-0.001282,-0.000522,0.147401,0.146828,0.059951,0.999996,0.001046,-0.002563,-0.001040,0.999996,0.002573,0.002565,-0.002570,0.999993
30842,2,0,-59.0000,3.193009,-1.922423,9.068099,-0.010309,0.006042,-0.008541,0.012767,0.003575,-0.004034,-0.506155,0.226055,-1.207926,0.031931,-0.019231,0.090679,1.000000,0.000064,0.000018,-0.000020,-0.999998,-0.001319,-0.001305,-0.000533,0.151217,0.149476,0.061258,0.999996,0.001069,-0.002609,-0.001062,0.999996,0.002639,0.002612,-0.002636,0.999993
30843,2,0,-59.0000,3.246357,-1.890882,9.114891,0.028014,0.046018,0.045944,0.011756,0.007151,-0.003559,-0.498442,0.231521,-1.211512,0.032466,-0.018915,0.091147,1.000000,0.000059,0.000036,-0.000018,-0.999998,-0.001348,-0.001350,-0.000536,0.154548,0.154660,0.061580,0.999996,0.001075,-0.002699,-0.001067,0.999996,0.002697,0.002702,-0.002694,0.999993
30844,2,0,-59.0000,3.257049,-1.903916,9.085756,0.047377,0.026858,0.025060,0.007563,0.004804,-0.001934,-0.498248,0.226312,-1.203907,0.032572,-0.019043,0.090856,1.000000,0.000038,0.000024,-0.000010,-0.999998,-0.001354,-0.001388,-0.000545,0.155293,0.158952,0.062673,0.999996,0.001094,-0.002774,-0.001086,0.999996,0.002710,0.002777,-0.002707,0.999992
30845,2,0,-59.0000,3.234881,-1.900446,9.096529,0.023852,0.032588,0.027097,0.002777,0.003662,-0.002762,-0.503949,0.235105,-1.210546,0.032350,-0.019006,0.090964,1.000000,0.000014,0.000018,-0.000014,-0.999998,-0.001339,-0.001417,-0.000540,0.153478,0.162280,0.062117,0.999995,0.001084,-0.002832,-0.001077,0.999996,0.002679,0.002835,-0.002676,0.999992
30846,2,0,-59.0000,3.256343,-1.903048,9.086191,0.047962,0.028244,0.025053,0.003774,0.004718,0.001302,-0.503998,0.216766,-1.203731,0.032566,-0.019032,0.090861,1.000000,0.000019,0.000024,0.000007,-0.999998,-0.001320,-0.001457,-0.000568,0.151385,0.166896,0.065365,0.999995,0.001141,-0.002913,-0.001133,0.999996,0.002642,0.002916,-0.002639,0.999992
30847,2,0,-59.0000,3.225903,-1.932828,9.089090,0.017028,0.000426,0.023651,-0.004073,0.005111,0.001972,-0.497642,0.248497,-1.202678,0.032262,-0.019326,0.090890,1.000000,-0.000020,0.000026,0.000010,-0.999998,-0.001265,-0.001498,-0.000573,0.145051,0.171604,0.065859,0.999995,0.001149,-0.002995,-0.001142,0.999996,0.002532,0.002998,-0.002528,0.999992
30848,2,0,-59.0000,3.225423,-1.933168,9.089188,0.017315,0.001163,0.023650,-0.001336,0.004213,0.003823,-0.504073,0.225905,-1.204257,0.032257,-0.019330,0.090891,1.000000,-0.000007,0.000021,0.000019,-0.999998,-0.001217,-0.001537,-0.000615,0.139511,0.176095,0.070724,0.999995,0.001234,-0.003073,-0.001227,0.999996,0.002435,0.003076,-0.002431,0.999992
30849,2,0,-59.0000,3.222578,-1.911847,9.078076,0.020245,0.020603,0.008250,-0.001740,0.001953,0.002213,-0.503253,0.225170,-1.205126,0.032227,-0.019117,0.090781,1.000000,-0.000009,0.000010,0.000011,-0.999998,-0.001171,-0.001563,-0.000628,0.134273,0.179062,0.072141,0.999994,0.001259,-0.003125,-0.001252,0.999996,0.002343,0.003128,-0.002340,0.999992
30850,2,0,-59.0000,3.213607,-1.919735,9.118797,-0.001204,0.022316,0.044524,-0.003978,0.003378,0.002393,-0.496934,0.226752,-1.206194,0.032138,-0.019195,0.091188,1.000000,-0.000020,0.000017,0.000012,-0.999998,-0.001117,-0.001595,-0.000623,0.128122,0.182728,0.071624,0.999994,0.001250,-0.003189,-0.001243,0.999997,0.002236,0.003192,-0.002232,0.999992
30851,262146,0,-59.0000,3.224545,-1.934229,9.089274,0.018119,0.003161,0.023648,-0.005205,0.001228,0.002099,-0.493518,0.226588,-1.199677,0.032246,-0.019340,0.090893,1.000000,-0.000026,0.000006,0.000010,-0.999998,-0.001055,-0.001618,-0.000630,0.120999,0.185277,0.072409,0.999994,0.001264,-0.003234,-0.001257,0.999997,0.002112,0.003236,-0.002108,0.999993
30852,2,0,-59.0000,3.229541,-1.977786,9.111544,0.013168,-0.033702,0.054455,-0.002872,-0.001930,0.002340,-0.500323,0.226312,-1.204630,0.032295,-0.019776,0.091116,1.000000,-0.000014,-0.000010,0.000012,-0.999998,-0.001004,-0.001629,-0.000627,0.115179,0.186570,0.072051,0.999994,0.001258,-0.003256,-0.001251,0.999997,0.002010,0.003259,-0.002006,0.999993
30853,2,0,-59.0000,3.227092,-1.956561,9.100273,0.016099,-0.014265,0.039052,-0.002967,-0.000197,0.001919,-0.505048,0.232334,-1.203685,0.032271,-0.019564,0.091003,1.000000,-0.000015,-0.000001,0.000010,-0.999998,-0.000952,-0.001644,-0.000638,0.109246,0.188299,0.073322,0.999994,0.001280,-0.003286,-0.001273,0.999997,0.001907,0.003289,-0.001902,0.999993
30854,2,0,-59.0000,3.216302,-1.942894,9.129571,-0.002689,0.006258,0.059924,-0.002993,-0.009387,0.001993,-0.505080,0.220355,-1.211011,0.032159,-0.019427,0.091298,1.000000,-0.000015,-0.000047,0.000010,-0.999998,-0.000897,-0.001613,-0.000664,0.102939,0.184784,0.076205,0.999994,0.001330,-0.003225,-0.001324,0.999998,0.001797,0.003227,-0.001792,0.999993
30855,2,0,-59.0000,3.233684,-1.903017,9.096416,0.026691,0.039399,0.027064,-0.003869,-0.002985,-0.001724,-0.505592,0.231843,-1.201382,0.032335,-0.019029,0.090965,1.000000,-0.000019,-0.000015,-0.000009,-0.999998,-0.000846,-0.001611,-0.000659,0.097072,0.184514,0.075694,0.999994,0.001321,-0.003220,-0.001316,0.999998,0.001694,0.003223,-0.001690,0.999993
30856,2,0,-59.0000,3.214863,-1.922181,9.117839,0.000476,0.026325,0.044514,-0.007375,-0.008269,0.002775,-0.504558,0.230172,-1.200640,0.032145,-0.019218,0.091180,1.000000,-0.000037,-0.000041,0.000014,-0.999998,-0.000772,-0.001585,-0.000664,0.088573,0.181595,0.076265,0.999994,0.001331,-0.003169,-0.001326,0.999998,0.001546,0.003171,-0.001542,0.999994
30857,2,0,-60.0000,3.218027,-1.944658,9.128587,-0.001900,0.008259,0.059922,-0.010934,-0.007260,0.002241,-0.497883,0.233275,-1.199022,0.032177,-0.019441,0.091288,1.000000,-0.000055,-0.000036,0.000011,-0.999998,-0.000680,-0.001566,-0.000671,0.077988,0.179408,0.077003,0.999994,0.001344,-0.003131,-0.001340,0.999998,0.001361,0.003133,-0.001357,0.999994
30858,2,0,-59.0000,3.216630,-1.949237,9.068487,0.015297,-0.006929,0.004818,-0.010435,-0.006732,0.004273,-0.504419,0.226172,-1.209199,0.032164,-0.019487,0.090687,1.000000,-0.000052,-0.000034,0.000021,-0.999998,-0.000585,-0.001551,-0.000700,0.067155,0.177643,0.080317,0.999994,0.001402,-0.003100,-0.001398,0.999998,0.001172,0.003102,-0.001168,0.999995
30859,2,0,-60.0000,3.230522,-1.960755,9.098153,0.017676,-0.010192,0.039054,-0.009922,-0.010834,0.001765,-0.510738,0.234534,-1.205905,0.032300,-0.019603,0.090984,1.000000,-0.000050,-0.000054,0.000009,-0.999998,-0.000497,-0.001514,-0.000710,0.057064,0.173397,0.081401,0.999994,0.001421,-0.003026,-0.001418,0.999998,0.000996,0.003028,-0.000992,0.999995
30860,2,0,-60.0000,3.231264,-1.961506,9.097728,0.017895,-0.009520,0.039054,-0.005325,-0.006228,0.001751,-0.508792,0.228816,-1.210005,0.032310,-0.019612,0.090979,1.000000,-0.000027,-0.000031,0.000009,-0.999999,-0.000433,-0.001496,-0.000730,0.049710,0.171392,0.083754,0.999994,0.001462,-0.002991,-0.001459,0.999999,0.000868,0.002993,-0.000863,0.999995
30861,2,0,-60.0000,3.243094,-1.976133,9.067832,0.037215,-0.028687,0.018189,-0.007873,-0.008794,0.000742,-0.501225,0.235638,-1.205752,0.032427,-0.019758,0.090681,1.000000,-0.000039,-0.000044,0.000004,-0.999999,-0.000357,-0.001468,-0.000736,0.040996,0.168165,0.084452,0.999995,0.001474,-0.002935,-0.001472,0.999999,0.000716,0.002936,-0.000711,0.999995
30862,2,0,-63.0000,3.232676,-1.962457,9.097021,0.018425,-0.008149,0.039055,0.000701,-0.007567,-0.001667,-0.507152,0.239550,-1.202098,0.032323,-0.019625,0.090971,1.000000,0.000004,-0.000038,-0.000008,-0.999999,-0.000325,-0.001442,-0.000756,0.037389,0.165214,0.086741,0.999995,0.001514,-0.002884,-0.001512,0.999999,0.000653,0.002885,-0.000648,0.999996
30863,2,0,-60.0000,3.252701,-1.943861,9.075044,0.045147,0.006234,0.021590,-0.002264,-0.007763,0.000252,-0.506421,0.232189,-1.197518,0.032524,-0.019438,0.090752,1.000000,-0.000011,-0.000039,0.000001,-0.999999,-0.000277,-0.001418,-0.000769,0.031842,0.162505,0.088121,0.999995,0.001538,-0.002836,-0.001536,0.999999,0.000556,0.002837,-0.000551,0.999996
30864,2,0,-60.0000,3.233931,-1.962608,9.096542,0.018893,-0.006719,0.039055,-0.000310,-0.003992,-0.001191,-0.505520,0.233874,-1.213458,0.032337,-0.019626,0.090966,1.000000,-0.000002,-0.000020,-0.000006,-0.999999,-0.000238,-0.001407,-0.000805,0.027400,0.161245,0.092261,0.999995,0.001610,-0.002814,-0.001609,0.999999,0.000478,0.002815,-0.000474,0.999996
30865,2,0,-60.0000,3.234327,-1.962431,9.096440,0.019169,-0.006036,0.039055,0.002656,-0.003795,-0.003111,-0.499371,0.227645,-1.201429,0.032341,-0.019626,0.090965,1.000000,0.000013,-0.000019,-0.000016,-0.999999,-0.000220,-0.001400,-0.000806,0.025288,0.160353,0.092340,0.999995,0.001612,-0.002799,-0.001610,0.999999,0.000441,0.002799,-0.000437,0.999996
30866,2,0,-60.0000,3.234752,-1.962030,9.096375,0.019458,-0.005374,0.039054,0.003478,-0.003905,-0.004428,-0.497252,0.238292,-1.209733,0.032345,-0.019623,0.090964,1.000000,0.000017,-0.000020,-0.000022,-0.999999,-0.000208,-0.001390,-0.000801,0.023982,0.159318,0.091776,0.999995,0.001602,-0.002781,-0.001601,0.999999,0.000419,0.002781,-0.000414,0.999996
30867,2,0,-60.0000,3.210785,-1.937082,9.095732,-0.001425,0.019089,0.025677,0.003383,-0.002172,-0.004849,-0.503998,0.231763,-1.196312,0.032106,-0.019373,0.090957,1.000000,0.000017,-0.000011,-0.000024,-0.999999,-0.000197,-0.001389,-0.000793,0.022646,0.159125,0.090888,0.999995,0.001586,-0.002777,-0.001585,0.999999,0.000395,0.002778,-0.000391,0.999996
30868,2,0,-60.0000,3.235184,-1.960953,9.096454,0.020019,-0.003972,0.039054,0.007158,0.002543,-0.003546,-0.505895,0.232976,-1.209416,0.032353,-0.019613,0.090963,1.000000,0.000036,0.000013,-0.000018,-0.999999,-0.000200,-0.001412,-0.000810,0.023096,0.161791,0.092842,0.999995,0.001620,-0.002824,-0.001619,0.999999,0.000403,0.002824,-0.000399,0.999996
30869,2,0,-60.0000,3.234857,-1.935130,9.145053,0.006006,0.031387,0.078723,0.007037,-0.004913,-0.003895,-0.505610,0.232301,-1.202815,0.032346,-0.019355,0.091451,1.000000,0.000035,-0.000025,-0.000019,-0.999999,-0.000204,-0.001398,-0.000815,0.023457,0.160178,0.093459,0.999995,0.001631,-0.002796,-0.001630,0.999999,0.000409,0.002796,-0.000405,0.999996
30870,2,0,-60.0000,3.233306,-1.937962,9.085366,0.023174,0.016134,0.023625,0.004799,-0.003487,-0.003713,-0.507402,0.234253,-1.211026,0.032331,-0.019382,0.090854,1.000000,0.000024,-0.000017,-0.000019,-0.999999,-0.000196,-0.001389,-0.000828,0.022612,0.159178,0.094857,0.999995,0.001656,-0.002778,-0.001654,0.999999,0.000395,0.002779,-0.000390,0.999996
30871,2,0,-60.0000,3.225084,-1.944860,9.126053,0.001766,0.017940,0.059910,0.006444,-0.003707,-0.006348,-0.499260,0.224576,-1.201747,0.032249,-0.019453,0.091261,1.000000,0.000032,-0.000019,-0.000032,-0.999999,-0.000201,-0.001378,-0.000819,0.023147,0.157945,0.093928,0.999995,0.001639,-0.002757,-0.001638,0.999999,0.000404,0.002757,-0.000399,0.999996
30872,2,0,-60.0000,3.234180,-1.936664,9.085331,0.023720,0.017463,0.023621,0.003478,-0.003904,-0.004428,-0.500711,0.236893,-1.211677,0.032340,-0.019369,0.090854,1.000000,0.000017,-0.000020,-0.000022,-0.999999,-0.000190,-0.001369,-0.000809,0.021920,0.156809,0.092721,0.999995,0.001618,-0.002737,-0.001617,0.999999,0.000383,0.002737,-0.000378,0.999996
30873,2,0,-60.0000,3.234713,-1.936149,9.085252,0.023995,0.018145,0.023619,0.004395,-0.005746,-0.005325,-0.501776,0.232503,-1.204170,0.032344,-0.019364,0.090853,1.000000,0.000022,-0.000029,-0.000027,-0.999999,-0.000183,-0.001349,-0.000804,0.021079,0.154557,0.092178,0.999995,0.001609,-0.002698,-0.001608,0.999999,0.000368,0.002698,-0.000364,0.999996
30874,2,0,-60.0000,3.267538,-1.927588,9.093626,0.052851,0.028633,0.040374,0.001644,-0.000220,-0.002635,-0.504663,0.227500,-1.196628,0.032675,-0.019277,0.090936,1.000000,0.000008,-0.000001,-0.000013,-0.999999,-0.000159,-0.001360,-0.000816,0.018370,0.155872,0.093518,0.999995,0.001632,-0.002720,-0.001631,0.999999,0.000321,0.002721,-0.000316,0.999996
30875,2,0,-60.0000,3.245890,-1.924486,9.104160,0.029326,0.034354,0.042420,0.000418,-0.002369,-0.002929,-0.507684,0.226714,-1.199088,0.032458,-0.019246,0.091042,1.000000,0.000002,-0.000012,-0.000015,-0.999999,-0.000130,-0.001360,-0.000812,0.015070,0.155801,0.093109,0.999995,0.001625,-0.002719,-0.001624,0.999999,0.000263,0.002720,-0.000259,0.999996
30876,2,0,-60.0000,3.213515,-1.932423,9.095759,0.000968,0.025207,0.025663,0.003465,0.000725,0.000112,-0.501634,0.232700,-1.210513,0.032135,-0.019326,0.090957,1.000000,0.000017,0.000004,0.000001,-0.999999,-0.000114,-0.001374,-0.000813,0.013219,0.157385,0.093137,0.999995,0.001626,-0.002747,-0.001625,0.999999,0.000231,0.002747,-0.000226,0.999996
30877,2,0,-60.0000,3.235275,-1.935136,9.085267,0.025043,0.020852,0.023611,0.001321,0.000417,0.000715,-0.506241,0.236200,-1.208421,0.032353,-0.019352,0.090852,1.000000,0.000007,0.000002,0.000004,-0.999999,-0.000085,-0.001390,-0.000825,0.009851,0.159314,0.094508,0.999995,0.001649,-0.002781,-0.001649,0.999999,0.000172,0.002781,-0.000167,0.999996
30878,2,0,-60.0000,3.227140,-1.967773,9.077473,0.017927,-0.012014,0.020248,-0.001321,-0.000417,-0.000715,-0.509598,0.235698,-1.201014,0.032271,-0.019677,0.090775,1.000000,-0.000007,-0.000002,-0.000004,-0.999999,-0.000044,-0.001402,-0.000841,0.005224,0.160608,0.096339,0.999995,0.001681,-0.002803,-0.001681,0.999999,0.000091,0.002803,-0.000086,0.999996
30879,2,0,-60.0000,3.248315,-1.945448,9.115495,0.027718,0.018331,0.057847,0.004097,0.004079,-0.002048,-0.503810,0.225146,-1.196851,0.032485,-0.019457,0.091154,1.000000,0.000020,0.000020,-0.000010,-0.999999,-0.000034,-0.001433,-0.000841,0.004009,0.164255,0.096355,0.999994,0.001682,-0.002867,-0.001682,0.999999,0.000070,0.002867,-0.000065,0.999996
30880,2,0,-60.0000,3.229250,-1.988785,9.088913,0.015768,-0.029387,0.035690,0.003370,0.002457,-0.000309,-0.505008,0.229166,-1.200832,0.032294,-0.019889,0.090888,1.000000,0.000017,0.000012,-0.000002,-0.999999,-0.000017,-0.001455,-0.000851,0.002078,0.166752,0.097492,0.999994,0.001702,-0.002910,-0.001701,0.999999,0.000036,0.002910,-0.000031,0.999996
30881,2,0,-60.0000,3.215464,-1.952906,9.107366,-0.000367,0.009892,0.041097,0.002966,0.000198,-0.001920,-0.506387,0.232503,-1.205777,0.032155,-0.019531,0.091073,1.000000,0.000015,0.000001,-0.000010,-0.999999,0.000001,-0.001468,-0.000853,0.000074,0.168240,0.097804,0.999994,0.001707,-0.002936,-0.001707,0.999999,0.000001,0.002936,0.000004,0.999996
30882,2,0,-60.0000,3.226649,-1.966571,9.077908,0.018904,-0.009313,0.020249,0.002966,0.000198,-0.001920,-0.510191,0.232236,-1.202281,0.032266,-0.019667,0.090779,1.000000,0.000015,0.000001,-0.000010,-0.999999,0.000017,-0.001479,-0.000857,-0.001835,0.169458,0.098223,0.999994,0.001714,-0.002958,-0.001714,0.999999,-0.000032,0.002958,0.000037,0.999996
30883,2,0,-60.0000,3.226805,-1.966173,9.077939,0.019179,-0.008632,0.020249,0.003384,-0.002172,-0.004849,-0.504538,0.225362,-1.202180,0.032267,-0.019664,0.090779,1.000000,0.000017,-0.000011,-0.000024,-0.999999,0.000029,-0.001477,-0.000849,-0.003170,0.169265,0.097335,0.999994,0.001699,-0.002954,-0.001699,0.999999,-0.000055,0.002954,0.000060,0.999996
30884,2,0,-60.0000,3.211212,-1.933752,9.036662,0.019887,0.014621,-0.029440,0.003465,0.000725,0.000112,-0.507803,0.230468,-1.211360,0.032112,-0.019339,0.090366,1.000000,0.000017,0.000004,0.000001,-0.999999,0.000045,-0.001491,-0.000856,-0.005057,0.170902,0.098106,0.999994,0.001712,-0.002983,-0.001713,0.999999,-0.000088,0.002983,0.000093,0.999996
30885,2,0,-60.0000,3.245627,-1.921646,9.104853,0.031810,0.041098,0.042386,0.005608,0.001033,-0.000491,-0.507186,0.236279,-1.199776,0.032457,-0.019219,0.091048,1.000000,0.000028,0.000005,-0.000002,-0.999998,0.000052,-0.001510,-0.000869,-0.005858,0.173030,0.099577,0.999994,0.001738,-0.003020,-0.001738,0.999998,-0.000102,0.003020,0.000107,0.999995
30886,2,0,-59.0000,3.218173,-1.972367,9.118929,-0.001786,-0.005460,0.056543,0.004016,0.001183,-0.007009,-0.493797,0.234258,-1.202583,0.032182,-0.019727,0.091189,1.000000,0.000020,0.000006,-0.000035,-0.999998,0.000057,-0.001520,-0.000860,-0.006348,0.174137,0.098593,0.999994,0.001721,-0.003039,-0.001721,0.999999,-0.000111,0.003039,0.000116,0.999995
30887,2,0,-59.0000,3.226980,-1.964247,9.078293,0.020158,-0.005934,0.020249,0.005299,-0.002958,-0.001681,-0.500022,0.228670,-1.200303,0.032268,-0.019645,0.090783,1.000000,0.000026,-0.000015,-0.000008,-0.999998,0.000065,-0.001517,-0.000871,-0.007255,0.173886,0.099831,0.999994,0.001742,-0.003035,-0.001743,0.999998,-0.000127,0.003035,0.000132,0.999995
30888,2,0,-60.0000,3.248433,-1.941427,9.116310,0.029990,0.024424,0.057828,0.007253,0.000814,-0.003127,-0.505821,0.235338,-1.201466,0.032484,-0.019418,0.091162,1.000000,0.000036,0.000004,-0.000016,-0.999998,0.000059,-0.001534,-0.000870,-0.006624,0.175788,0.099703,0.999994,0.001740,-0.003068,-0.001741,0.999998,-0.000116,0.003068,0.000121,0.999995
30889,2,0,-60.0000,3.227231,-1.962833,9.078510,0.020745,-0.004582,0.020248,0.006849,-0.001446,-0.004737,-0.500117,0.231277,-1.202254,0.032271,-0.019632,0.090785,1.000000,0.000034,-0.000007,-0.000024,-0.999998,0.000054,-0.001536,-0.000868,-0.006075,0.176015,0.099445,0.999994,0.001736,-0.003072,-0.001736,0.999998,-0.000106,0.003072,0.000111,0.999995
30890,2,0,-59.0000,3.213731,-1.926723,9.096892,0.004579,0.034704,0.025633,0.003061,-0.001534,-0.001499,-0.505182,0.229564,-1.209976,0.032136,-0.019269,0.090969,1.000000,0.000015,-0.000008,-0.000007,-0.999998,0.000073,-0.001540,-0.000882,-0.008216,0.176435,0.101077,0.999994,0.001764,-0.003079,-0.001765,0.999998,-0.000143,0.003079,0.000149,0.999995
30891,2,0,-60.0000,3.235602,-1.929320,9.086388,0.028655,0.030352,0.023577,0.003465,0.000726,0.000111,-0.504509,0.235077,-1.205974,0.032356,-0.019295,0.090863,1.000000,0.000017,0.000004,0.000001,-0.999998,0.000091,-0.001557,-0.000895,-0.010300,0.178464,0.102497,0.999994,0.001789,-0.003115,-0.001789,0.999998,-0.000180,0.003114,0.000185,0.999995
30892,2,0,-60.0000,3.214049,-1.926401,9.096848,0.005109,0.036054,0.025628,-0.003678,-0.006449,-0.000879,-0.509000,0.235352,-1.204958,0.032137,-0.019262,0.090970,1.000000,-0.000018,-0.000032,-0.000004,-0.999998,0.000143,-0.001538,-0.000902,-0.016273,0.176246,0.103321,0.999994,0.001803,-0.003076,-0.001804,0.999998,-0.000284,0.003076,0.000290,0.999995
30893,2,0,-60.0000,3.209086,-1.980680,9.100015,-0.004623,-0.015540,0.037761,0.000110,-0.006361,-0.004117,-0.501590,0.229704,-1.192093,0.032088,-0.019808,0.091001,1.000000,0.000001,-0.000032,-0.000021,-0.999998,0.000173,-0.001516,-0.000896,-0.019681,0.173795,0.102681,0.999994,0.001792,-0.003033,-0.001793,0.999998,-0.000343,0.003033,0.000349,0.999995
30894,2,0,-60.0000,3.226548,-1.940573,9.066822,0.024637,0.017537,0.004786,-0.003582,-0.008181,-0.000458,-0.504684,0.229349,-1.204728,0.032262,-0.019404,0.090670,1.000000,-0.000018,-0.000041,-0.000002,-0.999998,0.000227,-0.001487,-0.000909,-0.025853,0.170411,0.104170,0.999994,0.001818,-0.002974,-0.001819,0.999998,-0.000451,0.002973,0.000457,0.999995
30895,2,0,-59.0000,3.210722,-1.981130,9.099340,-0.004133,-0.014171,0.037763,-0.004713,-0.012062,-0.000329,-0.500836,0.229250,-1.200190,0.032102,-0.019809,0.090996,1.000000,-0.000024,-0.000060,-0.000002,-0.999998,0.000287,-0.001442,-0.000919,-0.032789,0.165224,0.105276,0.999994,0.001837,-0.002884,-0.001839,0.999998,-0.000572,0.002883,0.000578,0.999996
30896,2,0,-59.0000,3.222952,-1.995538,9.069350,0.015165,-0.033412,0.016929,-0.005308,-0.010858,-0.002783,-0.510962,0.230191,-1.201553,0.032224,-0.019953,0.090696,1.000000,-0.000027,-0.000054,-0.000014,-0.999999,0.000345,-0.001399,-0.000906,-0.039339,0.160319,0.103733,0.999994,0.001810,-0.002798,-0.001812,0.999998,-0.000687,0.002797,0.000692,0.999996
30897,2,0,-59.0000,3.256326,-1.987714,9.077348,0.044004,-0.022907,0.033655,-0.003582,-0.008180,-0.000458,-0.507671,0.229040,-1.207285,0.032559,-0.019876,0.090775,1.000000,-0.000018,-0.000041,-0.000002,-0.999999,0.000398,-0.001372,-0.000913,-0.045486,0.157291,0.104541,0.999995,0.001825,-0.002745,-0.001827,0.999998,-0.000794,0.002744,0.000799,0.999996
30898,2,0,-59.0000,3.202912,-1.993113,9.079179,-0.008155,-0.027053,0.018988,-0.001021,-0.010241,-0.003990,-0.506717,0.231075,-1.201863,0.032024,-0.019931,0.090794,1.000000,-0.000005,-0.000051,-0.000020,-0.999999,0.000433,-0.001328,-0.000905,-0.049470,0.152279,0.103644,0.999995,0.001809,-0.002658,-0.001811,0.999998,-0.000863,0.002656,0.000868,0.999996
30899,2,0,-59.0000,3.255080,-1.941286,9.113969,0.032830,0.031879,0.057797,-0.002760,-0.008290,-0.001776,-0.507992,0.230958,-1.200429,0.032547,-0.019412,0.091141,1.000000,-0.000014,-0.000041,-0.000009,-0.999999,0.000481,-0.001300,-0.000908,-0.054936,0.149031,0.103923,0.999995,0.001814,-0.002601,-0.001816,0.999998,-0.000959,0.002599,0.000964,0.999996
30900,2,0,-60.0000,3.237356,-1.985041,9.086847,0.020900,-0.015882,0.035712,-0.000008,-0.013813,-0.004466,-0.501356,0.231478,-1.205376,0.032367,-0.019851,0.090871,1.000000,-0.000000,-0.000069,-0.000022,-0.999999,0.000512,-0.001239,-0.000906,-0.058519,0.142013,0.103759,0.999995,0.001811,-0.002479,-0.001813,0.999998,-0.001021,0.002477,0.001026,0.999996
30901,2,0,-60.0000,3.233153,-1.941794,9.064207,0.026411,0.022210,0.004772,0.000513,-0.004100,-0.002508,-0.506205,0.231791,-1.201848,0.032329,-0.019419,0.090643,1.000000,0.000003,-0.000021,-0.000013,-0.999999,0.000541,-0.001230,-0.000906,-0.061913,0.141022,0.103789,0.999995,0.001811,-0.002461,-0.001814,0.999998,-0.001081,0.002459,0.001085,0.999996
30902,2,0,-60.0000,3.249567,-1.973674,9.105313,0.026201,0.000324,0.054486,-0.000295,-0.008618,-0.005730,-0.506709,0.225872,-1.204111,0.032491,-0.019738,0.091055,1.000000,-0.000001,-0.000043,-0.000029,-0.999999,0.000570,-0.001195,-0.000892,-0.065204,0.137029,0.102172,0.999996,0.001783,-0.002392,-0.001786,0.999998,-0.001138,0.002390,0.001142,0.999996
30903,2,0,-60.0000,3.250145,-1.973420,9.105162,0.026477,0.001009,0.054486,0.002561,-0.002060,-0.003533,-0.501900,0.236574,-1.207523,0.032500,-0.019736,0.091052,1.000000,0.000013,-0.000010,-0.000018,-0.999999,0.000588,-0.001196,-0.000889,-0.067221,0.137056,0.101812,0.999996,0.001777,-0.002392,-0.001780,0.999998,-0.001173,0.002390,0.001177,0.999996
30904,262146,0,-60.0000,3.239834,-1.984213,9.086145,0.021979,-0.013203,0.035714,0.001335,-0.004209,-0.003826,-0.505448,0.232741,-1.205504,0.032396,-0.019843,0.090862,1.000000,0.000007,-0.000021,-0.000019,-0.999999,0.000610,-0.001184,-0.000880,-0.069757,0.135791,0.100800,0.999996,0.001759,-0.002370,-0.001762,0.999998,-0.001217,0.002368,0.001222,0.999996
30905,2,0,-59.0000,3.240183,-1.983809,9.086109,0.022254,-0.012520,0.035714,0.004704,-0.001752,-0.004137,-0.503196,0.234281,-1.200839,0.032401,-0.019841,0.090861,1.000000,0.000024,-0.000009,-0.000021,-0.999999,0.000616,-0.001186,-0.000878,-0.070490,0.135918,0.100489,0.999996,0.001754,-0.002372,-0.001757,0.999998,-0.001230,0.002370,0.001234,0.999996
30906,2,0,-60.0000,3.227288,-1.972896,9.055960,0.020359,-0.008012,0.001468,0.002657,-0.003791,-0.003112,-0.503253,0.230060,-1.208094,0.032271,-0.019731,0.090560,1.000000,0.000013,-0.000019,-0.000016,-0.999999,0.000634,-0.001177,-0.000882,-0.072566,0.134910,0.100973,0.999996,0.001762,-0.002355,-0.001765,0.999998,-0.001267,0.002352,0.001271,0.999996
30907,2,0,-59.0000,3.235660,-1.939761,9.063748,0.028013,0.026237,0.004757,0.006525,-0.000806,-0.001392,-0.503850,0.229012,-1.201186,0.032356,-0.019401,0.090637,1.000000,0.000033,-0.000004,-0.000007,-0.999999,0.000636,-0.001185,-0.000894,-0.072779,0.135900,0.102348,0.999996,0.001786,-0.002372,-0.001789,0.999998,-0.001270,0.002370,0.001274,0.999996
30908,2,0,-59.0000,3.248967,-1.949511,9.094000,0.030435,0.023047,0.039001,0.006751,0.000288,-0.005163,-0.505794,0.230215,-1.208221,0.032489,-0.019499,0.090939,1.000000,0.000034,0.000001,-0.000026,-0.999999,0.000628,-0.001195,-0.000877,-0.071883,0.137008,0.100454,0.999996,0.001753,-0.002391,-0.001756,0.999998,-0.001255,0.002389,0.001259,0.999996
30909,2,0,-60.0000,3.238376,-1.960063,9.075139,0.025943,0.008859,0.020233,0.003561,-0.001005,0.000531,-0.504149,0.240794,-1.201071,0.032383,-0.019602,0.090751,1.000000,0.000018,-0.000005,0.000003,-0.999999,0.000647,-0.001205,-0.000894,-0.074060,0.138120,0.102310,0.999996,0.001786,-0.002411,-0.001789,0.999998,-0.001293,0.002408,0.001297,0.999996
30910,2,0,-59.0000,3.216651,-1.956721,9.085781,0.002395,0.014580,0.022291,0.004608,-0.000020,-0.004559,-0.503494,0.237682,-1.194049,0.032166,-0.019570,0.090857,1.000000,0.000023,-0.000000,-0.000023,-0.999999,0.000653,-0.001213,-0.000897,-0.074749,0.139039,0.102691,0.999995,0.001792,-0.002427,-0.001795,0.999998,-0.001305,0.002424,0.001309,0.999996
30911,2,0,-59.0000,3.227442,-1.945069,9.104805,0.007436,0.030137,0.041053,0.005204,-0.001224,-0.002105,-0.501771,0.235142,-1.207151,0.032274,-0.019453,0.091048,1.000000,0.000026,-0.000006,-0.000011,-0.999999,0.000661,-0.001219,-0.000904,-0.075563,0.139708,0.103488,0.999995,0.001806,-0.002438,-0.001809,0.999997,-0.001319,0.002436,0.001323,0.999996
30912,2,0,-60.0000,3.195232,-1.952986,9.096399,-0.020874,0.020994,0.024348,-0.000308,-0.003990,-0.001189,-0.498312,0.235844,-1.203725,0.031950,-0.019530,0.090965,1.000000,-0.000002,-0.000020,-0.000006,-0.999999,0.000697,-0.001211,-0.000921,-0.079761,0.138842,0.105445,0.999995,0.001840,-0.002423,-0.001844,0.999997,-0.001392,0.002421,0.001397,0.999996
30913,2,0,-59.0000,3.195670,-1.953073,9.096227,-0.020600,0.021676,0.024347,-0.002951,-0.004826,-0.002617,-0.503271,0.233476,-1.203591,0.031954,-0.019530,0.090963,1.000000,-0.000015,-0.000024,-0.000013,-0.999999,0.000743,-0.001199,-0.000916,-0.085039,0.137430,0.104848,0.999995,0.001830,-0.002399,-0.001833,0.999997,-0.001484,0.002396,0.001489,0.999996
30914,2,0,-59.0000,3.166727,-1.983007,9.098660,-0.051491,-0.006186,0.023135,-0.002873,-0.015742,-0.002121,-0.506800,0.230584,-1.199399,0.031660,-0.019829,0.090989,1.000000,-0.000014,-0.000079,-0.000011,-0.999999,0.000793,-0.001134,-0.000928,-0.090786,0.130035,0.106281,0.999996,0.001855,-0.002270,-0.001859,0.999997,-0.001585,0.002267,0.001589,0.999996
30915,2,0,-59.0000,3.220110,-1.956557,9.084591,0.003763,0.018008,0.022285,-0.008063,-0.019144,-0.004555,-0.514239,0.228777,-1.201051,0.032192,-0.019563,0.090850,1.000000,-0.000040,-0.000096,-0.000023,-0.999999,0.000865,-0.001050,-0.000920,-0.099042,0.120370,0.105341,0.999996,0.001839,-0.002101,-0.001842,0.999997,-0.001729,0.002098,0.001732,0.999996
30916,2,0,-59.0000,3.191691,-1.961750,9.135088,-0.041487,0.024904,0.060653,-0.006548,-0.022187,-0.002999,-0.505175,0.239358,-1.204804,0.031906,-0.019615,0.091355,1.000000,-0.000033,-0.000111,-0.000015,-0.999999,0.000932,-0.000948,-0.000917,-0.106673,0.108708,0.104991,0.999997,0.001832,-0.001897,-0.001836,0.999997,-0.001862,0.001894,0.001865,0.999996
30917,2,0,-59.0000,3.259343,-1.971066,9.102384,0.030193,0.010502,0.054469,-0.008497,-0.025956,-0.001553,-0.500681,0.230705,-1.195443,0.032581,-0.019707,0.091029,1.000000,-0.000042,-0.000130,-0.000008,-0.999999,0.001013,-0.000833,-0.000929,-0.115984,0.095594,0.106344,0.999997,0.001856,-0.001668,-0.001859,0.999996,-0.002024,0.001665,0.002027,0.999997
30918,2,0,-59.0000,3.262237,-1.874875,9.075496,0.045651,0.100822,0.011249,-0.018665,-0.027038,-0.005649,-0.503423,0.231328,-1.203153,0.032610,-0.018741,0.090761,1.000000,-0.000093,-0.000135,-0.000028,-0.999999,0.001136,-0.000708,-0.000911,-0.130103,0.081305,0.104306,0.999997,0.001820,-0.001419,-0.001824,0.999996,-0.002271,0.001415,0.002273,0.999996
30919,2,0,-59.0000,3.267244,-2.020256,9.062749,0.042392,-0.041613,0.030392,-0.015019,-0.025146,-0.000160,-0.504456,0.239288,-1.206124,0.032661,-0.020196,0.090633,1.000000,-0.000075,-0.000126,-0.000001,-0.999999,0.001250,-0.000599,-0.000918,-0.143168,0.068811,0.105077,0.999998,0.001834,-0.001201,-0.001837,0.999995,-0.002499,0.001196,0.002501,0.999996
30920,2,0,-59.0000,3.250250,-1.917933,9.106180,0.017188,0.069835,0.044287,-0.016437,-0.023830,-0.001295,-0.506928,0.236045,-1.209419,0.032492,-0.019172,0.091067,1.000000,-0.000082,-0.000119,-0.000006,-0.999999,0.001368,-0.000496,-0.000919,-0.156692,0.056929,0.105220,0.999998,0.001836,-0.000994,-0.001839,0.999995,-0.002735,0.000989,0.002737,0.999996
30921,2,0,-59.0000,3.271545,-2.023112,9.060560,0.042946,-0.040255,0.030395,-0.016032,-0.021571,0.000316,-0.505778,0.228520,-1.199365,0.032706,-0.020224,0.090611,1.000000,-0.000080,-0.000108,0.000002,-0.999998,0.001486,-0.000404,-0.000923,-0.170252,0.046495,0.105645,0.999998,0.001844,-0.000811,-0.001846,0.999994,-0.002971,0.000806,0.002973,0.999995
30922,2,0,-59.0000,3.287060,-1.937677,9.063980,0.060558,0.046220,0.021401,-0.014806,-0.019421,0.000608,-0.510373,0.233110,-1.198048,0.032862,-0.019370,0.090644,1.000000,-0.000074,-0.000097,0.000003,-0.999998,0.001596,-0.000323,-0.000920,-0.182902,0.037221,0.105401,0.999998,0.001840,-0.000650,-0.001842,0.999993,-0.003192,0.000644,0.003193,0.999995
30923,2,0,-59.0000,3.263717,-2.011918,9.088331,0.024453,-0.019007,0.051210,-0.014692,-0.011971,0.000960,-0.504009,0.235399,-1.206667,0.032632,-0.020112,0.090887,1.000000,-0.000073,-0.000060,0.000005,-0.999998,0.001706,-0.000280,-0.000919,-0.195474,0.032240,0.105310,0.999998,0.001838,-0.000563,-0.001840,0.999992,-0.003412,0.000556,0.003413,0.999994
30924,2,0,-59.0000,3.284271,-1.994404,9.065806,0.051108,-0.004691,0.033646,-0.010019,-0.018276,0.001426,-0.511937,0.230168,-1.206914,0.032835,-0.019939,0.090662,1.000000,-0.000050,-0.000091,0.000007,-0.999998,0.001796,-0.000205,-0.000933,-0.205727,0.023645,0.106852,0.999998,0.001865,-0.000413,-0.001866,0.999992,-0.003591,0.000406,0.003591,0.999993
30925,2,0,-59.0000,3.282584,-1.948745,9.102505,0.039725,0.049488,0.057699,-0.010505,-0.009622,-0.000673,-0.508037,0.236377,-1.203269,0.032821,-0.019483,0.091028,1.000000,-0.000053,-0.000048,-0.000003,-0.999998,0.001882,-0.000171,-0.000929,-0.215640,0.019781,0.106418,0.999998,0.001857,-0.000345,-0.001859,0.999991,-0.003764,0.000338,0.003764,0.999993
30926,2,0,-59.0000,3.278114,-2.028827,9.056907,0.044251,-0.036936,0.030402,-0.007456,-0.006532,0.002365,-0.508746,0.234739,-1.204200,0.032778,-0.020285,0.090571,1.000000,-0.000037,-0.000033,0.000012,-0.999998,0.001956,-0.000154,-0.000935,-0.224124,0.017814,0.107102,0.999998,0.001869,-0.000311,-0.001870,0.999991,-0.003912,0.000304,0.003912,0.999992
30927,2,0,-59.0000,3.243247,-1.991218,9.085593,0.004296,0.007376,0.037771,-0.008778,-0.006949,0.001652,-0.511043,0.235291,-1.199837,0.032429,-0.019908,0.090858,1.000000,-0.000044,-0.000035,0.000008,-0.999997,0.002037,-0.000135,-0.000942,-0.233424,0.015733,0.107912,0.999998,0.001883,-0.000275,-0.001885,0.999990,-0.004074,0.000267,0.004075,0.999992
30928,2,0,-59.0000,3.243789,-1.992008,9.085226,0.004527,0.008038,0.037770,-0.008055,-0.005326,-0.000086,-0.508806,0.235731,-1.201803,0.032435,-0.019916,0.090854,1.000000,-0.000040,-0.000027,-0.000000,-0.999997,0.002110,-0.000121,-0.000939,-0.241828,0.014088,0.107572,0.999998,0.001877,-0.000246,-0.001878,0.999989,-0.004221,0.000238,0.004221,0.999991
30929,2,0,-59.0000,3.268703,-2.016979,9.085417,0.026005,-0.014981,0.051213,-0.003674,-0.006441,-0.000880,-0.503993,0.242086,-1.204486,0.032684,-0.020168,0.090856,1.000000,-0.000018,-0.000032,-0.000004,-0.999997,0.002163,-0.000103,-0.000942,-0.247880,0.011983,0.107947,0.999998,0.001884,-0.000209,-0.001885,0.999989,-0.004326,0.000201,0.004327,0.999991
30930,2,0,-59.0000,3.272244,-1.941567,9.070644,0.038838,0.056633,0.023426,-0.004494,-0.006332,0.000439,-0.508479,0.236620,-1.199776,0.032720,-0.019414,0.090708,1.000000,-0.000022,-0.000032,0.000002,-0.999997,0.002222,-0.000085,-0.000958,-0.254639,0.010041,0.109770,0.999998,0.001916,-0.000175,-0.001917,0.999988,-0.004444,0.000167,0.004445,0.999990
30931,2,0,-59.0000,3.289139,-1.999023,9.063023,0.052946,0.000040,0.033637,-0.003577,-0.008171,-0.000461,-0.511777,0.233565,-1.203666,0.032888,-0.019989,0.090632,1.000000,-0.000018,-0.000041,-0.000002,-0.999997,0.002276,-0.000059,-0.000965,-0.260784,0.007020,0.110588,0.999998,0.001930,-0.000123,-0.001931,0.999988,-0.004552,0.000114,0.004552,0.999990
30932,2,0,-59.0000,3.232840,-1.983280,9.053917,0.003398,0.014520,0.003516,-0.007552,-0.004801,0.001946,-0.503746,0.240228,-1.203711,0.032326,-0.019829,0.090541,1.000000,-0.000038,-0.000024,0.000010,-0.999997,0.002350,-0.000049,-0.000970,-0.269245,0.005917,0.111167,0.999998,0.001940,-0.000103,-0.001941,0.999987,-0.004699,0.000094,0.004699,0.999989
30933,2,0,-59.0000,3.281684,-2.007497,9.103191,0.031828,0.002641,0.069952,0.001112,-0.005299,-0.000062,-0.506953,0.234023,-1.203412,0.032814,-0.020075,0.091033,1.000000,0.000006,-0.000026,-0.000000,-0.999997,0.002381,-0.000037,-0.000984,-0.272813,0.004557,0.112745,0.999998,0.001968,-0.000080,-0.001968,0.999987,-0.004761,0.000070,0.004762,0.999989
30934,2,0,-59.0000,3.271340,-2.018681,9.084090,0.027333,-0.011596,0.051214,-0.002766,-0.003660,0.002764,-0.502774,0.236217,-1.192406,0.032712,-0.020185,0.090842,1.000000,-0.000014,-0.000018,0.000014,-0.999997,0.002433,-0.000037,-0.001003,-0.278842,0.004471,0.114979,0.999998,0.002007,-0.000078,-0.002007,0.999986,-0.004867,0.000068,0.004867,0.999988
30935,262146,0,-59.0000,3.258018,-1.983494,9.102352,0.011177,0.027692,0.056499,-0.003269,-0.004185,0.000732,-0.509938,0.234253,-1.211910,0.032578,-0.019833,0.091025,1.000000,-0.000016,-0.000021,0.000004,-0.999996,0.002486,-0.000031,-0.001013,-0.284882,0.003829,0.116021,0.999998,0.002025,-0.000067,-0.002025,0.999986,-0.004972,0.000057,0.004972,0.999988
30936,2,0,-59.0000,3.266890,-1.976179,9.061414,0.033064,0.027080,0.020179,-0.003772,-0.004709,-0.001300,-0.504741,0.237332,-1.202339,0.032667,-0.019760,0.090615,1.000000,-0.000019,-0.000024,-0.000006,-0.999996,0.002537,-0.000020,-0.001007,-0.290665,0.002579,0.115378,0.999998,0.002014,-0.000045,-0.002014,0.999985,-0.005073,0.000035,0.005073,0.999987
30937,2,0,-59.0000,3.258847,-1.984224,9.101896,0.011718,0.029031,0.056495,-0.005410,-0.004492,0.001339,-0.499327,0.240715,-1.194876,0.032587,-0.019840,0.091020,1.000000,-0.000027,-0.000022,0.000007,-0.999996,0.002600,-0.000013,-0.001016,-0.297988,0.001837,0.116373,0.999998,0.002031,-0.000032,-0.002031,0.999984,-0.005201,0.000022,0.005201,0.999986
30938,2,0,-59.0000,3.281014,-1.987750,9.090963,0.035807,0.024692,0.054425,-0.007552,-0.004800,0.001946,-0.508481,0.239410,-1.205703,0.032808,-0.019874,0.090911,1.000000,-0.000038,-0.000024,0.000010,-0.999996,0.002676,-0.000007,-0.001029,-0.306604,0.001066,0.117956,0.999998,0.002059,-0.000019,-0.002059,0.999984,-0.005351,0.000008,0.005351,0.999986
30939,2,0,-59.0000,3.273073,-2.021031,9.082943,0.028716,-0.008201,0.051213,-0.005102,-0.000507,0.002533,-0.508512,0.240336,-1.201165,0.032731,-0.020208,0.090830,1.000000,-0.000026,-0.000003,0.000013,-0.999996,0.002739,-0.000021,-0.001040,-0.313822,0.002703,0.119173,0.999998,0.002080,-0.000047,-0.002080,0.999983,-0.005477,0.000036,0.005477,0.999985
30940,2,0,-59.0000,3.248886,-1.997009,9.082307,0.007756,0.016172,0.037758,-0.003269,-0.004184,0.000732,-0.501915,0.235806,-1.194128,0.032487,-0.019968,0.090824,1.000000,-0.000016,-0.000021,0.000004,-0.999996,0.002791,-0.000014,-0.001056,-0.319860,0.001915,0.120962,0.999998,0.002111,-0.000033,-0.002111,0.999982,-0.005583,0.000022,0.005583,0.999984
30941,2,0,-59.0000,3.273678,-2.021990,9.082512,0.029243,-0.006833,0.051213,-0.008055,-0.005324,-0.000086,-0.508381,0.234552,-1.203766,0.032734,-0.020216,0.090827,1.000000,-0.000040,-0.000027,-0.000000,-0.999995,0.002866,-0.000002,-0.001054,-0.328384,0.000530,0.120803,0.999998,0.002108,-0.000009,-0.002108,0.999981,-0.005731,-0.000003,0.005731,0.999984
30942,2,0,-59.0000,3.249774,-1.998178,9.081731,0.008296,0.017505,0.037755,-0.004810,-0.005697,0.003789,-0.502227,0.239344,-1.201393,0.032496,-0.019979,0.090819,1.000000,-0.000024,-0.000028,0.000019,-0.999995,0.002929,0.000009,-0.001069,-0.335689,-0.000649,0.122502,0.999998,0.002138,0.000011,-0.002138,0.999981,-0.005859,-0.000024,0.005859,0.999983
30943,2,0,-59.0000,3.282910,-2.015598,9.041229,0.051398,-0.006778,0.014890,-0.006327,-0.002653,0.002240,-0.507929,0.236957,-1.202835,0.032828,-0.020153,0.090413,1.000000,-0.000032,-0.000013,0.000011,-0.999995,0.002998,0.000005,-0.001078,-0.343601,-0.000250,0.123585,0.999998,0.002157,0.000004,-0.002157,0.999980,-0.005997,-0.000017,0.005997,0.999982
30944,2,0,-59.0000,3.261005,-1.988435,9.100204,0.013623,0.033773,0.056477,-0.007146,-0.002544,0.003559,-0.503309,0.239442,-1.204966,0.032609,-0.019881,0.091003,1.000000,-0.000036,-0.000013,0.000018,-0.999995,0.003073,0.000000,-0.001092,-0.352090,0.000369,0.125173,0.999998,0.002185,-0.000006,-0.002185,0.999979,-0.006145,-0.000007,0.006145,0.999981
30945,2,0,-59.0000,3.269667,-1.981651,9.059217,0.035512,0.033173,0.020151,-0.009790,-0.003375,0.002134,-0.498989,0.239035,-1.201781,0.032695,-0.019812,0.090594,1.000000,-0.000049,-0.000017,0.000011,-0.999994,0.003158,0.000000,-0.001096,-0.361885,0.000347,0.125631,0.999998,0.002193,-0.000006,-0.002193,0.999978,-0.006316,-0.000008,0.006316,0.999980
30946,2,0,-59.0000,3.264331,-2.036826,9.062227,0.025869,-0.018400,0.032488,-0.009287,-0.002851,0.004166,-0.500357,0.245025,-1.198600,0.032642,-0.020363,0.090624,1.000000,-0.000046,-0.000014,0.000021,-0.999994,0.003243,-0.000006,-0.001112,-0.371668,0.001075,0.127372,0.999998,0.002223,-0.000019,-0.002223,0.999976,-0.006487,0.000004,0.006487,0.999979
30947,2,0,-59.0000,3.283825,-2.019036,9.040130,0.052534,-0.004083,0.014885,-0.008874,-0.005213,0.001232,-0.503993,0.236499,-1.200036,0.032836,-0.020186,0.090403,1.000000,-0.000044,-0.000026,0.000006,-0.999994,0.003324,0.000004,-0.001115,-0.380873,-0.000085,0.127744,0.999998,0.002230,0.000001,-0.002229,0.999975,-0.006647,-0.000016,0.006647,0.999978
30948,2,0,-59.0000,3.275764,-2.027606,9.080507,0.031211,-0.002109,0.051209,-0.009189,-0.004581,0.004584,-0.511922,0.239114,-1.197314,0.032756,-0.020271,0.090807,1.000000,-0.000046,-0.000023,0.000023,-0.999994,0.003411,0.000007,-0.001138,-0.390839,-0.000408,0.130379,0.999997,0.002276,0.000007,-0.002275,0.999974,-0.006821,-0.000023,0.006821,0.999977
30949,2,0,-59.0000,3.262456,-1.992978,9.098690,0.015049,0.037180,0.056463,-0.007048,-0.004273,0.003977,-0.506361,0.235390,-1.201402,0.032623,-0.019926,0.090988,1.000000,-0.000035,-0.000021,0.000020,-0.999993,0.003487,0.000010,-0.001156,-0.399525,-0.000699,0.132433,0.999997,0.002311,0.000012,-0.002311,0.999973,-0.006973,-0.000028,0.006973,0.999976
30950,2,0,-59.0000,3.265468,-2.040277,9.061041,0.026941,-0.015696,0.032489,-0.007843,0.000394,0.000690,-0.506643,0.235371,-1.202818,0.032655,-0.020399,0.090611,1.000000,-0.000039,0.000002,0.000003,-0.999993,0.003558,-0.000004,-0.001147,-0.407685,0.000954,0.131397,0.999997,0.002293,-0.000017,-0.002293,0.999972,-0.007115,0.000000,0.007115,0.999975
30951,2,0,-59.0000,3.230305,-2.002696,9.089943,-0.013024,0.028614,0.039811,-0.008273,-0.006418,0.003682,-0.509509,0.244585,-1.199044,0.032301,-0.020023,0.090901,1.000000,-0.000041,-0.000032,0.000018,-0.999993,0.003640,0.000009,-0.001163,-0.417064,-0.000575,0.133318,0.999997,0.002327,0.000010,-0.002327,0.999971,-0.007279,-0.000027,0.007279,0.999974
30952,2,0,-59.0000,3.274259,-2.009417,9.068248,0.034825,0.019239,0.035667,-0.011112,-0.003788,0.001421,-0.502179,0.245109,-1.200047,0.032741,-0.020089,0.090684,1.000000,-0.000056,-0.000019,0.000007,-0.999992,0.003730,0.000014,-0.001163,-0.427381,-0.001093,0.133277,0.999997,0.002326,0.000019,-0.002326,0.999969,-0.007459,-0.000036,0.007459,0.999972
30953,2,0,-59.0000,3.252798,-2.007723,9.078543,0.011299,0.024945,0.037736,-0.012149,-0.004778,0.006510,-0.505667,0.240982,-1.201908,0.032526,-0.020071,0.090787,1.000000,-0.000061,-0.000024,0.000033,-0.999992,0.003834,0.000016,-0.001185,-0.439314,-0.001356,0.135766,0.999997,0.002370,0.000024,-0.002369,0.999968,-0.007667,-0.000042,0.007667,0.999971
30954,2,0,-59.0000,3.250591,-1.987594,9.066981,0.014159,0.044283,0.022192,-0.016115,-0.006022,0.004372,-0.511326,0.241721,-1.199023,0.032504,-0.019868,0.090672,1.000000,-0.000081,-0.000030,0.000022,-0.999991,0.003954,0.000027,-0.001199,-0.453076,-0.002566,0.137458,0.999997,0.002399,0.000045,-0.002399,0.999966,-0.007908,-0.000064,0.007907,0.999969
30955,2,0,-59.0000,3.272756,-1.992144,9.055800,0.038236,0.039944,0.020116,-0.016430,-0.005390,0.007723,-0.509563,0.241931,-1.193696,0.032726,-0.019913,0.090561,1.000000,-0.000082,-0.000027,0.000039,-0.999991,0.004080,0.000031,-0.001220,-0.467573,-0.003025,0.139854,0.999997,0.002441,0.000053,-0.002440,0.999964,-0.008161,-0.000073,0.008160,0.999967
30956,2,0,-59.0000,3.254218,-2.012859,9.076897,0.012064,0.027000,0.037730,-0.022246,-0.012129,0.007444,-0.499531,0.246232,-1.200968,0.032537,-0.020117,0.090773,1.000000,-0.000111,-0.000061,0.000037,-0.999990,0.004236,0.000072,-0.001241,-0.485434,-0.007669,0.142208,0.999997,0.002482,0.000134,-0.002481,0.999961,-0.008472,-0.000155,0.008472,0.999964
30957,2,0,-59.0000,3.249921,-1.971927,9.053902,0.017498,0.064978,0.006635,-0.022342,-0.010397,0.007026,-0.508120,0.238145,-1.193387,0.032495,-0.019708,0.090543,1.000000,-0.000112,-0.000052,0.000035,-0.999990,0.004391,0.000102,-0.001254,-0.503201,-0.011022,0.143717,0.999997,0.002508,0.000192,-0.002507,0.999958,-0.008782,-0.000214,0.008782,0.999961
30958,2,0,-59.0000,3.256076,-2.017808,9.075132,0.012609,0.028360,0.037725,-0.030710,-0.015079,0.010287,-0.507254,0.240377,-1.194388,0.032555,-0.020162,0.090757,1.000000,-0.000154,-0.000075,0.000051,-0.999989,0.004592,0.000151,-0.001275,-0.526242,-0.016631,0.146214,0.999997,0.002552,0.000290,-0.002549,0.999955,-0.009185,-0.000314,0.009184,0.999958
30959,2,0,-58.0000,3.259822,-2.042532,9.085097,0.010307,0.010399,0.053272,-0.030709,-0.015075,0.010286,-0.508499,0.247716,-1.204168,0.032592,-0.020410,0.090857,1.000000,-0.000154,-0.000075,0.000051,-0.999988,0.004793,0.000200,-0.001294,-0.549323,-0.022204,0.148426,0.999997,0.002591,0.000388,-0.002587,0.999951,-0.009587,-0.000412,0.009586,0.999954
30960,2,0,-59.0000,3.263693,-2.067363,9.094980,0.007976,-0.007564,0.068821,-0.033255,-0.017628,0.009276,-0.513957,0.240836,-1.198151,0.032630,-0.020657,0.090956,1.000000,-0.000166,-0.000088,0.000046,-0.999987,0.005006,0.000264,-0.001311,-0.573680,-0.029504,0.150434,0.999996,0.002626,0.000515,-0.002620,0.999946,-0.010012,-0.000541,0.010011,0.999950
30961,2,0,-59.0000,3.262685,-2.049025,9.082607,0.010830,0.011765,0.053270,-0.032241,-0.021192,0.008786,-0.502276,0.244220,-1.201994,0.032618,-0.020474,0.090833,1.000000,-0.000161,-0.000106,0.000044,-0.999985,0.005214,0.000345,-0.001327,-0.597557,-0.038685,0.152303,0.999996,0.002658,0.000675,-0.002651,0.999942,-0.010429,-0.000703,0.010427,0.999945
30962,2,0,-59.0000,3.283574,-2.033448,9.059520,0.037460,0.026047,0.035641,-0.030917,-0.020774,0.009497,-0.510382,0.251051,-1.195799,0.032827,-0.020319,0.090602,1.000000,-0.000155,-0.000104,0.000047,-0.999984,0.005416,0.000423,-0.001345,-0.620693,-0.047681,0.154416,0.999996,0.002695,0.000832,-0.002686,0.999938,-0.010833,-0.000861,0.010831,0.999941
30963,2,0,-59.0000,3.274444,-2.047690,9.039231,0.032954,0.011786,0.016935,-0.034476,-0.019757,0.008975,-0.513447,0.250794,-1.198131,0.032736,-0.020460,0.090399,1.000000,-0.000172,-0.000099,0.000045,-0.999983,0.005635,0.000497,-0.001357,-0.645757,-0.056040,0.155799,0.999996,0.002719,0.000978,-0.002708,0.999933,-0.011270,-0.001009,0.011268,0.999936
30964,2,0,-59.0000,3.246183,-2.080661,9.040674,0.002008,-0.016062,0.015862,-0.031419,-0.021285,0.007461,-0.506710,0.243129,-1.189272,0.032453,-0.020791,0.090413,1.000000,-0.000157,-0.000106,0.000037,-0.999982,0.005839,0.000582,-0.001386,-0.669166,-0.065802,0.159158,0.999995,0.002778,0.001148,-0.002764,0.999928,-0.011679,-0.001181,0.011676,0.999931
30965,2,0,-59.0000,3.280710,-2.075653,9.047491,0.030868,-0.005450,0.032489,-0.031126,-0.026470,0.008704,-0.506372,0.242147,-1.197659,0.032796,-0.020741,0.090482,1.000000,-0.000156,-0.000132,0.000044,-0.999981,0.006043,0.000689,-0.001408,-0.692636,-0.077938,0.161846,0.999995,0.002825,0.001360,-0.002808,0.999923,-0.012088,-0.001394,0.012085,0.999926
30966,2,0,-59.0000,3.272071,-2.089685,9.027042,0.026337,-0.019747,0.013789,-0.032330,-0.024044,0.003808,-0.516839,0.241266,-1.195816,0.032710,-0.020882,0.090278,1.000000,-0.000162,-0.000120,0.000019,-0.999979,0.006243,0.000790,-0.001397,-0.715579,-0.089484,0.160603,0.999995,0.002803,0.001562,-0.002783,0.999918,-0.012489,-0.001597,0.012484,0.999921
30967,2,0,-59.0000,3.244309,-2.122322,9.028358,-0.004545,-0.047634,0.012727,-0.027562,-0.027475,0.009218,-0.511761,0.254551,-1.192583,0.032432,-0.021209,0.090291,1.000000,-0.000138,-0.000137,0.000046,-0.999978,0.006432,0.000900,-0.001429,-0.737259,-0.102106,0.164366,0.999994,0.002869,0.001782,-0.002846,0.999913,-0.012867,-0.001819,0.012862,0.999916
30968,2,0,-59.0000,3.289795,-2.106078,9.054122,0.029021,-0.022063,0.048049,-0.027755,-0.024011,0.008389,-0.515892,0.255492,-1.191857,0.032888,-0.021047,0.090548,1.000000,-0.000139,-0.000120,0.000042,-0.999977,0.006620,0.000999,-0.001457,-0.758770,-0.113358,0.167701,0.999994,0.002927,0.001978,-0.002900,0.999908,-0.013243,-0.002017,0.013237,0.999910
30969,2,0,-59.0000,3.259350,-2.116724,9.044542,0.000712,-0.031314,0.031429,-0.023884,-0.025648,0.005553,-0.510503,0.247977,-1.199901,0.032582,-0.021156,0.090452,1.000000,-0.000119,-0.000128,0.000028,-0.999975,0.006785,0.001105,-0.001476,-0.777710,-0.125416,0.170012,0.999993,0.002967,0.002189,-0.002937,0.999904,-0.013573,-0.002229,0.013567,0.999905
30970,2,0,-59.0000,3.310638,-2.070458,9.018694,0.058458,0.011578,0.014846,-0.021744,-0.025341,0.004943,-0.511414,0.246274,-1.198771,0.033095,-0.020694,0.090193,1.000000,-0.000109,-0.000127,0.000025,-0.999974,0.006940,0.001212,-0.001507,-0.795488,-0.137719,0.173691,0.999993,0.003031,0.002404,-0.002998,0.999899,-0.013883,-0.002445,0.013876,0.999901
30971,2,0,-59.0000,3.282796,-2.077526,9.068876,0.013342,0.018619,0.053256,-0.020926,-0.025445,0.003621,-0.507096,0.252151,-1.201518,0.032817,-0.020765,0.090695,1.000000,-0.000105,-0.000127,0.000018,-0.999973,0.007088,0.001319,-0.001522,-0.812464,-0.149901,0.175524,0.999992,0.003063,0.002616,-0.003026,0.999895,-0.014180,-0.002659,0.014172,0.999896
30972,2,0,-59.0000,3.268297,-2.144580,9.051783,-0.001093,-0.047889,0.047002,-0.018572,-0.019434,0.003806,-0.514671,0.248436,-1.202780,0.032675,-0.021437,0.090523,1.000000,-0.000093,-0.000097,0.000019,-0.999972,0.007222,0.001396,-0.001538,-0.827880,-0.158737,0.177374,0.999991,0.003096,0.002770,-0.003055,0.999891,-0.014449,-0.002815,0.014440,0.999892
30973,2,0,-59.0000,3.308236,-2.084105,9.055910,0.037690,0.014959,0.051175,-0.018473,-0.021161,0.004218,-0.514332,0.248319,-1.200784,0.033073,-0.020832,0.090565,1.000000,-0.000092,-0.000106,0.000021,-0.999971,0.007358,0.001481,-0.001555,-0.843470,-0.168443,0.179467,0.999991,0.003132,0.002940,-0.003089,0.999887,-0.014721,-0.002986,0.014712,0.999887
30974,2,0,-59.0000,3.301766,-2.142766,8.998292,0.044810,-0.052911,0.008594,-0.008902,-0.018914,0.005847,-0.509786,0.248768,-1.194541,0.033010,-0.021423,0.089987,1.000000,-0.000045,-0.000095,0.000029,-0.999970,0.007449,0.001555,-0.001591,-0.853943,-0.176884,0.183618,0.999990,0.003205,0.003087,-0.003158,0.999884,-0.014903,-0.003135,0.014894,0.999884
30975,2,0,-59.0000,3.322368,-2.100359,9.024417,0.057222,-0.003676,0.030404,-0.012251,-0.016790,0.001566,-0.516689,0.250560,-1.195505,0.033216,-0.020998,0.090248,1.000000,-0.000061,-0.000084,0.000008,-0.999969,0.007550,0.001622,-0.001602,-0.865502,-0.184472,0.184955,0.999990,0.003228,0.003220,-0.003179,0.999881,-0.015105,-0.003268,0.015095,0.999881
30976,2,0,-64.0000,3.293697,-2.130857,9.026555,0.026296,-0.031578,0.029365,-0.004707,-0.012014,-0.000375,-0.499136,0.252595,-1.184298,0.032932,-0.021307,0.090268,1.000000,-0.000024,-0.000060,-0.000002,-0.999968,0.007610,0.001670,-0.001612,-0.872369,-0.189902,0.186154,0.999989,0.003249,0.003314,-0.003198,0.999879,-0.015225,-0.003363,0.015214,0.999879
30977,2,0,-59.0000,3.305480,-2.120210,9.045106,0.031358,-0.015929,0.048053,-0.000835,-0.009055,0.001348,-0.510379,0.248099,-1.198033,0.033051,-0.021202,0.090453,1.000000,-0.000004,-0.000045,0.000007,-0.999968,0.007654,0.001698,-0.001633,-0.877408,-0.193167,0.188583,0.999989,0.003291,0.003371,-0.003239,0.999878,-0.015313,-0.003421,0.015302,0.999877
30978,2,0,-60.0000,3.316982,-2.133877,9.015161,0.050660,-0.035231,0.027289,0.003247,-0.004992,-0.000695,-0.516720,0.242076,-1.202836,0.033167,-0.021340,0.090152,1.000000,0.000016,-0.000025,-0.000003,-0.999968,0.007674,0.001709,-0.001650,-0.879669,-0.194366,0.190534,0.999989,0.003325,0.003392,-0.003273,0.999877,-0.015352,-0.003443,0.015341,0.999876
30979,2,0,-60.0000,3.282271,-2.095232,9.044618,0.010681,0.009076,0.034557,0.004062,-0.005099,-0.002016,-0.516835,0.244603,-1.200279,0.032820,-0.020954,0.090447,1.000000,0.000020,-0.000025,-0.000010,-0.999968,0.007688,0.001722,-0.001659,-0.881276,-0.195841,0.191629,0.999989,0.003345,0.003418,-0.003292,0.999876,-0.015380,-0.003469,0.015369,0.999876
30980,2,0,-60.0000,3.328634,-2.121996,9.034048,0.055949,-0.018967,0.045974,0.007329,-0.000928,-0.002738,-0.512280,0.246138,-1.198513,0.033286,-0.021224,0.090340,1.000000,0.000037,-0.000005,-0.000014,-0.999968,0.007680,0.001718,-0.001647,-0.880402,-0.195361,0.190238,0.999989,0.003320,0.003410,-0.003267,0.999877,-0.015365,-0.003460,0.015354,0.999876
30981,2,0,-60.0000,3.285320,-2.115631,9.055725,0.008620,-0.008250,0.050133,0.004584,-0.000019,-0.004573,-0.515539,0.251253,-1.200288,0.032853,-0.021159,0.090557,1.000000,0.000023,-0.000000,-0.000023,-0.999968,0.007686,0.001708,-0.001640,-0.881048,-0.194328,0.189461,0.999989,0.003307,0.003392,-0.003254,0.999876,-0.015376,-0.003442,0.015365,0.999876
30982,2,0,-60.0000,3.272128,-2.104138,9.025876,0.006637,-0.003943,0.015873,0.009663,-0.004083,-0.002524,-0.513269,0.241855,-1.186772,0.032719,-0.021046,0.090258,1.000000,0.000048,-0.000020,-0.000013,-0.999968,0.007671,0.001719,-0.001651,-0.879331,-0.195489,0.190723,0.999989,0.003329,0.003412,-0.003276,0.999877,-0.015347,-0.003463,0.015335,0.999876
30983,2,0,-60.0000,3.318281,-2.105668,9.064191,0.037729,0.003048,0.066734,0.012225,0.003029,-0.006103,-0.513705,0.250864,-1.196650,0.033184,-0.021063,0.090640,1.000000,0.000061,0.000015,-0.000031,-0.999968,0.007637,0.001696,-0.001647,-0.875440,-0.192930,0.190206,0.999989,0.003320,0.003367,-0.003268,0.999878,-0.015279,-0.003418,0.015267,0.999878
30984,2,0,-60.0000,3.272076,-2.101716,9.026459,0.007132,-0.002610,0.015873,0.012734,0.003547,-0.004071,-0.506251,0.243658,-1.202458,0.032722,-0.021024,0.090263,1.000000,0.000064,0.000018,-0.000020,-0.999968,0.007602,0.001672,-0.001644,-0.871449,-0.190148,0.189831,0.999989,0.003313,0.003319,-0.003262,0.999879,-0.015209,-0.003369,0.015198,0.999879
30985,2,0,-60.0000,3.304513,-2.092245,9.034998,0.035998,0.008032,0.032470,0.014462,0.001604,-0.006301,-0.508637,0.250158,-1.200806,0.033045,-0.020930,0.090348,1.000000,0.000072,0.000008,-0.000032,-0.999969,0.007558,0.001657,-0.001644,-0.866369,-0.188404,0.189807,0.999989,0.003313,0.003288,-0.003263,0.999880,-0.015120,-0.003338,0.015109,0.999880
30986,2,0,-60.0000,3.285293,-2.109470,9.057172,0.009934,-0.004929,0.050134,0.015688,0.003744,-0.006003,-0.506153,0.253096,-1.195321,0.032854,-0.021103,0.090569,1.000000,0.000078,0.000019,-0.000030,-0.999969,0.007505,0.001629,-0.001639,-0.860343,-0.185293,0.189176,0.999989,0.003302,0.003234,-0.003253,0.999882,-0.015015,-0.003283,0.015004,0.999882
30987,2,0,-60.0000,3.282479,-2.086045,9.046666,0.012770,0.014372,0.034548,0.018643,0.003941,-0.007934,-0.501556,0.242221,-1.190707,0.032826,-0.020870,0.090464,1.000000,0.000093,0.000020,-0.000040,-0.999970,0.007438,0.001604,-0.001636,-0.852606,-0.182442,0.188794,0.999990,0.003295,0.003184,-0.003247,0.999884,-0.014880,-0.003233,0.014870,0.999884
30988,2,0,-60.0000,3.284815,-2.130641,9.009521,0.024728,-0.038555,0.010704,0.016099,0.005993,-0.004384,-0.518387,0.243245,-1.181731,0.032850,-0.021314,0.090093,1.000000,0.000080,0.000030,-0.000022,-0.999970,0.007386,0.001565,-0.001642,-0.846692,-0.177887,0.189497,0.999990,0.003307,0.003105,-0.003261,0.999885,-0.014777,-0.003153,0.014767,0.999886
30989,2,0,-60.0000,3.295184,-2.117785,9.029088,0.029794,-0.022893,0.029379,0.022516,0.006905,-0.006214,-0.507615,0.251051,-1.194835,0.032954,-0.021189,0.090287,1.000000,0.000113,0.000035,-0.000031,-0.999971,0.007302,0.001523,-0.001650,-0.837063,-0.173149,0.190390,0.999990,0.003323,0.003022,-0.003278,0.999888,-0.014609,-0.003070,0.014599,0.999889
30990,2,0,-60.0000,3.273097,-2.112553,9.040551,0.006199,-0.017206,0.031462,0.023132,0.005656,-0.012921,-0.511993,0.246536,-1.207496,0.032732,-0.021138,0.090402,1.000000,0.000116,0.000028,-0.000065,-0.999972,0.007204,0.001498,-0.001627,-0.825832,-0.170366,0.187618,0.999990,0.003275,0.002973,-0.003231,0.999891,-0.014413,-0.003020,0.014403,0.999892
30991,2,0,-60.0000,3.315915,-2.115621,9.019856,0.054080,-0.026554,0.027298,0.027823,0.013115,-0.007964,-0.513451,0.245198,-1.201087,0.033164,-0.021170,0.090193,1.000000,0.000139,0.000066,-0.000040,-0.999973,0.007090,0.001429,-0.001629,-0.812759,-0.162371,0.187833,0.999991,0.003278,0.002834,-0.003238,0.999894,-0.014185,-0.002880,0.014175,0.999895
30992,2,0,-60.0000,3.279673,-2.074379,9.050365,0.014084,0.017713,0.034541,0.030779,0.013316,-0.009896,-0.515620,0.255819,-1.188928,0.032802,-0.020759,0.090498,1.000000,0.000154,0.000067,-0.000049,-0.999974,0.006957,0.001360,-0.001619,-0.797474,-0.154594,0.186639,0.999991,0.003257,0.002698,-0.003220,0.999898,-0.013918,-0.002743,0.013909,0.999899
30993,2,0,-60.0000,3.287024,-2.063366,9.010712,0.035927,0.017005,-0.001807,0.033018,0.011895,-0.010094,-0.513462,0.244107,-1.200313,0.032875,-0.020650,0.090102,1.000000,0.000165,0.000059,-0.000050,-0.999975,0.006816,0.001299,-0.001622,-0.781247,-0.147540,0.186864,0.999991,0.003261,0.002575,-0.003226,0.999902,-0.013635,-0.002619,0.013626,0.999904
30994,2,0,-60.0000,3.275179,-2.046222,9.041505,0.017128,0.037696,0.018942,0.032921,0.013628,-0.010509,-0.509221,0.252998,-1.193194,0.032757,-0.020479,0.090409,1.000000,0.000165,0.000068,-0.000053,-0.999976,0.006674,0.001232,-0.001625,-0.764967,-0.139936,0.187095,0.999992,0.003265,0.002442,-0.003233,0.999906,-0.013351,-0.002486,0.013343,0.999908
30995,2,0,-60.0000,3.268492,-2.072670,9.094309,-0.006717,0.021167,0.070883,0.025688,0.012824,-0.007360,-0.512346,0.235941,-1.198324,0.032690,-0.020740,0.090938,1.000000,0.000128,0.000064,-0.000037,-0.999976,0.006571,0.001163,-0.001627,-0.753173,-0.132032,0.187270,0.999992,0.003268,0.002304,-0.003238,0.999908,-0.013145,-0.002347,0.013137,0.999911
30996,2,0,-60.0000,3.297437,-2.040511,9.092345,0.024677,0.050405,0.071864,0.022226,0.012109,-0.007462,-0.506557,0.248441,-1.209740,0.032979,-0.020416,0.090919,1.000000,0.000111,0.000061,-0.000037,-0.999977,0.006483,0.001099,-0.001618,-0.743093,-0.124738,0.186188,0.999992,0.003250,0.002177,-0.003221,0.999911,-0.012969,-0.002219,0.012962,0.999914
30997,2,0,-60.0000,3.264034,-2.046589,9.084935,-0.003643,0.041115,0.055280,0.018046,0.009771,-0.005828,-0.504753,0.254032,-1.196370,0.032644,-0.020475,0.090846,1.000000,0.000090,0.000049,-0.000029,-0.999978,0.006420,0.001043,-0.001617,-0.735836,-0.118363,0.186102,0.999993,0.003248,0.002066,-0.003221,0.999912,-0.012842,-0.002107,0.012836,0.999915
30998,2,0,-60.0000,3.274391,-2.058719,9.055852,0.015662,0.021800,0.034530,0.015597,0.005489,-0.006420,-0.507520,0.251238,-1.195109,0.032746,-0.020595,0.090556,1.000000,0.000078,0.000027,-0.000032,-0.999978,0.006369,0.001008,-0.001626,-0.730005,-0.114341,0.187045,0.999993,0.003265,0.001996,-0.003239,0.999914,-0.012741,-0.002037,0.012734,0.999917
30999,2,0,-60.0000,3.276754,-2.078861,9.067337,0.013386,0.003880,0.050131,0.012233,0.003042,-0.006106,-0.514248,0.255100,-1.205477,0.032768,-0.020795,0.090672,1.000000,0.000061,0.000015,-0.000031,-0.999978,0.006335,0.000986,-0.001622,-0.726109,-0.111774,0.186533,0.999993,0.003256,0.001951,-0.003231,0.999914,-0.012673,-0.001992,0.012666,0.999918
31000,2,0,-60.0000,3.263270,-2.066891,9.037681,0.011393,0.008197,0.015866,0.013148,0.001206,-0.007012,-0.509909,0.239404,-1.196414,0.032633,-0.020676,0.090375,1.000000,0.000066,0.000006,-0.000035,-0.999978,0.006297,0.000975,-0.001630,-0.721769,-0.110502,0.187460,0.999993,0.003272,0.001929,-0.003247,0.999915,-0.012597,-0.001970,0.012591,0.999919
31001,2,0,-60.0000,3.265947,-2.087020,9.049064,0.009117,-0.009722,0.031470,0.013965,0.001099,-0.008333,-0.502546,0.253841,-1.198995,0.032659,-0.020878,0.090489,1.000000,0.000070,0.000005,-0.000042,-0.999979,0.006252,0.000964,-0.001620,-0.716601,-0.109300,0.186336,0.999993,0.003252,0.001908,-0.003228,0.999917,-0.012507,-0.001948,0.012500,0.999920
31002,2,0,-60.0000,3.287783,-2.088395,9.038626,0.033193,-0.014065,0.029385,0.012642,0.000686,-0.009044,-0.511255,0.243916,-1.202938,0.032877,-0.020891,0.090385,1.000000,0.000063,0.000003,-0.000045,-0.999979,0.006211,0.000956,-0.001607,-0.711953,-0.108440,0.184820,0.999993,0.003226,0.001893,-0.003202,0.999918,-0.012426,-0.001933,0.012419,0.999921
31003,2,0,-60.0000,3.274350,-2.051480,9.057509,0.017008,0.025230,0.034520,0.012642,0.000687,-0.009044,-0.503973,0.250878,-1.195642,0.032743,-0.020522,0.090574,1.000000,0.000063,0.000003,-0.000045,-0.999979,0.006172,0.000948,-0.001592,-0.707385,-0.107561,0.183121,0.999993,0.003196,0.001877,-0.003173,0.999919,-0.012346,-0.001917,0.012340,0.999922
31004,2,0,-60.0000,3.266167,-2.082448,9.050038,0.009932,-0.007695,0.031471,0.017330,0.003551,-0.008649,-0.509870,0.234674,-1.202461,0.032662,-0.020834,0.090498,1.000000,0.000087,0.000018,-0.000043,-0.999980,0.006109,0.000927,-0.001587,-0.700187,-0.105076,0.182498,0.999993,0.003185,0.001834,-0.003163,0.999920,-0.012220,-0.001873,0.012214,0.999924
31005,2,0,-60.0000,3.288065,-2.083575,9.039636,0.034010,-0.012024,0.029385,0.015586,-0.003670,-0.006374,-0.511921,0.245567,-1.191381,0.032878,-0.020844,0.090395,1.000000,0.000078,-0.000018,-0.000032,-0.999980,0.006061,0.000937,-0.001594,-0.694696,-0.106284,0.183289,0.999993,0.003199,0.001855,-0.003176,0.999921,-0.012124,-0.001894,0.012118,0.999925
31006,2,0,-60.0000,3.280139,-2.089628,9.080621,0.012696,-0.009967,0.065737,0.013770,-0.000048,-0.013719,-0.511854,0.252109,-1.196025,0.032800,-0.020905,0.090805,1.000000,0.000069,-0.000000,-0.000069,-0.999980,0.006006,0.000940,-0.001549,-0.688416,-0.106615,0.178094,0.999993,0.003108,0.001861,-0.003086,0.999923,-0.012015,-0.001898,0.012009,0.999926
31007,2,0,-62.0000,3.277734,-2.066368,9.069838,0.015519,0.009314,0.050124,0.015388,-0.000210,-0.007208,-0.506811,0.249381,-1.194174,0.032776,-0.020672,0.090697,1.000000,0.000077,-0.000001,-0.000036,-0.999981,0.005957,0.000934,-0.001548,-0.682739,-0.105997,0.177991,0.999993,0.003107,0.001850,-0.003084,0.999924,-0.011916,-0.001887,0.011910,0.999927
31008,2,0,-60.0000,3.275291,-2.043193,9.059042,0.018308,0.028612,0.034508,0.014066,-0.000624,-0.007919,-0.514016,0.248117,-1.197983,0.032752,-0.020440,0.090589,1.000000,0.000070,-0.000003,-0.000040,-0.999981,0.005913,0.000933,-0.001552,-0.677777,-0.105888,0.178522,0.999993,0.003116,0.001848,-0.003094,0.999925,-0.011829,-0.001885,0.011823,0.999928
31009,2,0,-60.0000,3.286270,-2.030743,9.078209,0.023379,0.044303,0.053156,0.012432,-0.000408,-0.005277,-0.509633,0.238712,-1.204623,0.032862,-0.020314,0.090781,1.000000,0.000062,-0.000002,-0.000026,-0.999981,0.005881,0.000927,-0.001556,-0.674064,-0.105142,0.178903,0.999993,0.003122,0.001835,-0.003101,0.999926,-0.011764,-0.001872,0.011759,0.999929
31010,2,0,-60.0000,3.278339,-2.062175,9.070574,0.016286,0.011359,0.050121,0.010392,-0.002443,-0.004250,-0.511105,0.249016,-1.201141,0.032782,-0.020627,0.090705,1.000000,0.000052,-0.000012,-0.000021,-0.999981,0.005859,0.000930,-0.001558,-0.671562,-0.105578,0.179142,0.999993,0.003127,0.001843,-0.003105,0.999926,-0.011721,-0.001879,0.011715,0.999930
31011,2,0,-60.0000,3.276170,-2.039488,9.059559,0.019105,0.030635,0.034501,0.009478,-0.005216,-0.007896,-0.511927,0.246255,-1.200268,0.032759,-0.020400,0.090595,1.000000,0.000047,-0.000026,-0.000039,-0.999981,0.005838,0.000950,-0.001549,-0.669154,-0.107858,0.178165,0.999993,0.003110,0.001882,-0.003087,0.999927,-0.011679,-0.001919,0.011673,0.999930
31012,2,0,-60.0000,3.276786,-2.038666,9.059521,0.019351,0.031315,0.034498,0.005494,-0.006407,-0.000874,-0.502732,0.250681,-1.188817,0.032765,-0.020389,0.090596,1.000000,0.000027,-0.000032,-0.000004,-0.999981,0.005847,0.000970,-0.001571,-0.670228,-0.110089,0.180678,0.999993,0.003153,0.001921,-0.003131,0.999927,-0.011697,-0.001958,0.011691,0.999930
31013,2,0,-60.0000,3.277287,-2.037994,9.059491,0.019626,0.031998,0.034495,0.005817,-0.002481,-0.008831,-0.507522,0.251234,-1.198812,0.032771,-0.020384,0.090595,1.000000,0.000029,-0.000012,-0.000044,-0.999981,0.005841,0.000977,-0.001549,-0.669517,-0.110967,0.178188,0.999993,0.003110,0.001937,-0.003087,0.999927,-0.011685,-0.001973,0.011679,0.999930
31014,2,0,-60.0000,3.288395,-2.026285,9.078436,0.024688,0.047717,0.053136,0.005802,-0.002427,0.000323,-0.504280,0.243784,-1.196245,0.032883,-0.020265,0.090784,1.000000,0.000029,-0.000012,0.000002,-0.999981,0.005851,0.000975,-0.001582,-0.670623,-0.110709,0.181929,0.999993,0.003175,0.001932,-0.003152,0.999927,-0.011704,-0.001969,0.011698,0.999930
31015,2,0,-60.0000,3.302536,-2.061399,9.059764,0.041429,0.009789,0.048024,0.001624,-0.009380,-0.002589,-0.508523,0.239245,-1.200391,0.033021,-0.020615,0.090599,1.000000,0.000008,-0.000047,-0.000013,-0.999981,0.005877,0.001010,-0.001589,-0.673611,-0.114659,0.182773,0.999993,0.003190,0.002001,-0.003166,0.999926,-0.011756,-0.002039,0.011750,0.999929
31016,2,0,-60.0000,3.281705,-2.058307,9.070235,0.017897,0.015448,0.050112,0.001624,-0.009379,-0.002589,-0.520727,0.243999,-1.193563,0.032813,-0.020584,0.090704,1.000000,0.000008,-0.000047,-0.000013,-0.999981,0.005901,0.001045,-0.001591,-0.676392,-0.118638,0.182964,0.999993,0.003193,0.002071,-0.003169,0.999925,-0.011805,-0.002108,0.011798,0.999928
31017,2,0,-60.0000,3.269183,-2.047586,9.039939,0.015914,0.019699,0.015843,0.000301,-0.009794,-0.003299,-0.513073,0.249062,-1.191787,0.032687,-0.020477,0.090401,1.000000,0.000002,-0.000049,-0.000016,-0.999981,0.005932,0.001082,-0.001593,-0.679981,-0.122912,0.183234,0.999993,0.003198,0.002145,-0.003172,0.999925,-0.011868,-0.002183,0.011861,0.999927
31018,2,0,-60.0000,3.269988,-2.047446,9.039679,0.016115,0.020380,0.015841,0.000102,-0.006337,-0.004133,-0.513400,0.250270,-1.194557,0.032697,-0.020475,0.090398,1.000000,0.000001,-0.000032,-0.000021,-0.999980,0.005962,0.001107,-0.001587,-0.683377,-0.125792,0.182625,0.999993,0.003187,0.002195,-0.003161,0.999924,-0.011927,-0.002233,0.011920,0.999926
31019,2,0,-60.0000,3.289761,-2.028695,9.017584,0.042730,0.034635,-0.001881,-0.001431,-0.007851,-0.001074,-0.506794,0.244566,-1.199416,0.032894,-0.020286,0.090177,1.000000,-0.000007,-0.000039,-0.000005,-0.999980,0.006004,0.001133,-0.001595,-0.688237,-0.128701,0.183508,0.999992,0.003203,0.002246,-0.003176,0.999923,-0.012012,-0.002285,0.012004,0.999925
31020,2,0,-60.0000,3.295888,-2.071935,9.039463,0.037904,-0.001851,0.029377,-0.002445,-0.008895,-0.005137,-0.499050,0.246312,-1.205315,0.032954,-0.020719,0.090396,1.000000,-0.000012,-0.000044,-0.000026,-0.999980,0.006045,0.001169,-0.001586,-0.692906,-0.132861,0.182550,0.999992,0.003186,0.002319,-0.003158,0.999922,-0.012093,-0.002357,0.012086,0.999924
31021,2,0,-60.0000,3.272331,-2.047675,9.038779,0.016913,0.022422,0.015836,-0.003571,-0.008158,-0.000463,-0.509712,0.245914,-1.199947,0.032720,-0.020475,0.090389,1.000000,-0.000018,-0.000041,-0.000002,-0.999979,0.006098,0.001195,-0.001593,-0.699048,-0.135869,0.183389,0.999992,0.003201,0.002371,-0.003172,0.999921,-0.012200,-0.002410,0.012193,0.999923
31022,2,0,-60.0000,3.289200,-2.080105,9.079530,0.016933,0.000951,0.065736,-0.003571,-0.008158,-0.000463,-0.502551,0.249105,-1.195271,0.032888,-0.020800,0.090797,1.000000,-0.000018,-0.000041,-0.000002,-0.999979,0.006151,0.001221,-0.001602,-0.705075,-0.138776,0.184458,0.999992,0.003219,0.002422,-0.003189,0.999919,-0.012306,-0.002462,0.012298,0.999921
31023,2,0,-60.0000,3.298163,-2.072775,9.038440,0.038748,0.000180,0.029374,-0.004994,-0.006844,-0.001590,-0.520939,0.250527,-1.195921,0.032978,-0.020726,0.090386,1.000000,-0.000025,-0.000034,-0.000008,-0.999979,0.006209,0.001242,-0.001600,-0.711725,-0.141197,0.184277,0.999992,0.003216,0.002464,-0.003185,0.999918,-0.012422,-0.002504,0.012414,0.999920
31024,2,0,-60.0000,3.274446,-2.048677,9.037786,0.017718,0.024456,0.015829,-0.004177,-0.006951,-0.002911,-0.505674,0.237106,-1.191504,0.032741,-0.020485,0.090379,1.000000,-0.000021,-0.000035,-0.000015,-0.999978,0.006261,0.001267,-0.001600,-0.717727,-0.144056,0.184223,0.999992,0.003215,0.002514,-0.003184,0.999916,-0.012526,-0.002554,0.012518,0.999918
31025,2,0,-60.0000,3.277876,-2.070653,9.048510,0.015460,0.006562,0.031465,-0.006217,-0.008987,-0.001883,-0.508426,0.250078,-1.196218,0.032775,-0.020704,0.090487,1.000000,-0.000031,-0.000045,-0.000009,-0.999978,0.006325,0.001299,-0.001597,-0.725069,-0.147714,0.183916,0.999992,0.003210,0.002578,-0.003177,0.999915,-0.012654,-0.002618,0.012646,0.999917
31026,2,0,-60.0000,3.278702,-2.071106,9.048107,0.015721,0.007220,0.031464,-0.004893,-0.008572,-0.001173,-0.511217,0.249989,-1.200080,0.032783,-0.020709,0.090483,1.000000,-0.000024,-0.000043,-0.000006,-0.999977,0.006383,0.001329,-0.001596,-0.731669,-0.151131,0.183863,0.999991,0.003209,0.002638,-0.003175,0.999913,-0.012770,-0.002678,0.012761,0.999915
31027,2,0,-60.0000,3.279610,-2.071668,9.047650,0.015996,0.007904,0.031463,-0.008256,-0.011022,-0.000855,-0.508724,0.243536,-1.191654,0.032791,-0.020713,0.090479,1.000000,-0.000041,-0.000055,-0.000004,-0.999977,0.006459,0.001370,-0.001597,-0.740386,-0.155800,0.183961,0.999991,0.003211,0.002719,-0.003175,0.999911,-0.012922,-0.002760,0.012913,0.999913
31028,2,0,-60.0000,3.280617,-2.072280,9.047145,0.016248,0.008575,0.031462,-0.006117,-0.010713,-0.001467,-0.509027,0.253213,-1.198201,0.032801,-0.020720,0.090474,1.000000,-0.000031,-0.000054,-0.000007,-0.999976,0.006523,0.001411,-0.001598,-0.747748,-0.160509,0.184183,0.999991,0.003215,0.002801,-0.003178,0.999910,-0.013050,-0.002843,0.013041,0.999911
31029,2,0,-60.0000,3.292646,-2.086771,9.016927,0.035525,-0.010784,0.010740,-0.008663,-0.013270,-0.002471,-0.513172,0.243279,-1.194468,0.032920,-0.020864,0.090172,1.000000,-0.000043,-0.000066,-0.000012,-0.999976,0.006599,0.001465,-0.001593,-0.756475,-0.166641,0.183627,0.999991,0.003205,0.002908,-0.003166,0.999908,-0.013203,-0.002950,0.013193,0.999909
31030,2,0,-60.0000,3.261221,-2.070643,9.056800,-0.007032,0.014941,0.033554,-0.006016,-0.012440,-0.001051,-0.506726,0.250411,-1.202578,0.032606,-0.020704,0.090571,1.000000,-0.000030,-0.000062,-0.000005,-0.999975,0.006664,0.001514,-0.001600,-0.763958,-0.172281,0.184454,0.999990,0.003219,0.003007,-0.003179,0.999906,-0.013333,-0.003049,0.013323,0.999907
31031,2,0,-60.0000,3.284207,-2.073991,9.045450,0.017047,0.010618,0.031459,-0.006423,-0.014689,-0.002667,-0.507159,0.251043,-1.202080,0.032835,-0.020737,0.090458,1.000000,-0.000032,-0.000073,-0.000013,-0.999975,0.006730,0.001575,-0.001599,-0.771495,-0.179225,0.184391,0.999990,0.003218,0.003128,-0.003176,0.999904,-0.013465,-0.003171,0.013455,0.999904
31032,2,0,-60.0000,3.299030,-2.109858,9.026304,0.033801,-0.027318,0.026387,-0.003876,-0.012131,-0.001664,-0.509942,0.248010,-1.200770,0.032985,-0.021097,0.090265,1.000000,-0.000019,-0.000061,-0.000008,-0.999974,0.006784,0.001622,-0.001610,-0.777709,-0.184571,0.185715,0.999990,0.003241,0.003221,-0.003197,0.999903,-0.013573,-0.003265,0.013563,0.999903
31033,2,0,-60.0000,3.289208,-2.096105,9.055563,0.015076,-0.006588,0.047105,-0.001022,-0.010202,-0.004014,-0.515281,0.247691,-1.198062,0.032887,-0.020961,0.090557,1.000000,-0.000005,-0.000051,-0.000020,-0.999974,0.006821,0.001662,-0.001607,-0.781896,-0.189168,0.185416,0.999989,0.003236,0.003302,-0.003191,0.999902,-0.013646,-0.003345,0.013635,0.999901
31034,2,0,-60.0000,3.290155,-2.120990,9.006674,0.029524,-0.041008,0.007768,-0.000614,-0.007953,-0.002399,-0.508977,0.244683,-1.202055,0.032898,-0.021210,0.090068,1.000000,-0.000003,-0.000040,-0.000012,-0.999974,0.006856,0.001691,-0.001609,-0.785983,-0.192451,0.185739,0.999989,0.003242,0.003359,-0.003195,0.999901,-0.013717,-0.003403,0.013707,0.999900
31035,2,0,-60.0000,3.274758,-2.038816,9.062490,0.001655,0.051947,0.036518,0.001933,-0.010001,-0.005949,-0.504183,0.242043,-1.183912,0.032742,-0.020390,0.090626,1.000000,0.000010,-0.000050,-0.000030,-0.999974,0.006876,0.001732,-0.001602,-0.788205,-0.197175,0.184953,0.999989,0.003228,0.003441,-0.003180,0.999900,-0.013756,-0.003485,0.013745,0.999899
31036,2,0,-60.0000,3.313403,-2.098348,9.044011,0.039673,-0.009586,0.045009,0.002039,-0.002569,-0.005581,-0.517158,0.243723,-1.194901,0.033132,-0.020985,0.090440,1.000000,0.000010,-0.000013,-0.000028,-0.999973,0.006891,0.001737,-0.001585,-0.789963,-0.197754,0.183000,0.999989,0.003194,0.003451,-0.003146,0.999900,-0.013787,-0.003495,0.013776,0.999899
31037,2,0,-60.0000,3.292303,-2.095372,9.054608,0.016146,-0.003896,0.047105,-0.001328,-0.009574,-0.000661,-0.512480,0.245375,-1.194970,0.032919,-0.020953,0.090548,1.000000,-0.000007,-0.000048,-0.000003,-0.999973,0.006934,0.001770,-0.001596,-0.794915,-0.201571,0.184336,0.999989,0.003217,0.003518,-0.003168,0.999899,-0.013873,-0.003562,0.013862,0.999898
31038,2,0,-60.0000,3.276823,-2.063111,9.013328,0.016625,0.018843,-0.002822,0.002748,-0.005503,-0.002718,-0.503567,0.242469,-1.197548,0.032765,-0.020633,0.090134,1.000000,0.000014,-0.000028,-0.000014,-0.999973,0.006952,0.001788,-0.001595,-0.796971,-0.203616,0.184243,0.999989,0.003216,0.003554,-0.003166,0.999898,-0.013909,-0.003598,0.013898,0.999897
31039,2,0,-60.0000,3.291045,-2.073471,9.043083,0.019180,0.016010,0.031448,-0.001122,-0.008474,-0.004430,-0.517777,0.246620,-1.196836,0.032906,-0.020735,0.090432,1.000000,-0.000006,-0.000042,-0.000022,-0.999973,0.006988,0.001820,-0.001589,-0.801065,-0.207301,0.183496,0.999988,0.003203,0.003618,-0.003152,0.999897,-0.013981,-0.003662,0.013969,0.999896
31040,2,0,-60.0000,3.300043,-2.065620,9.002060,0.040959,0.015171,-0.004923,0.001526,-0.007644,-0.003012,-0.509664,0.242595,-1.194148,0.032997,-0.020657,0.090022,1.000000,0.000008,-0.000038,-0.000015,-0.999972,0.007011,0.001848,-0.001588,-0.803795,-0.210440,0.183451,0.999988,0.003202,0.003673,-0.003150,0.999897,-0.014028,-0.003717,0.014017,0.999895
31041,2,0,-60.0000,3.284342,-2.080801,9.083393,-0.001808,0.018845,0.067814,0.001425,-0.005917,-0.003428,-0.509171,0.249684,-1.183693,0.032840,-0.020809,0.090835,1.000000,0.000007,-0.000030,-0.000017,-0.999972,0.007036,0.001866,-0.001587,-0.806597,-0.212562,0.183402,0.999988,0.003201,0.003710,-0.003148,0.999896,-0.014077,-0.003755,0.014065,0.999894
31042,2,0,-60.0000,3.284988,-2.105479,9.034656,0.012633,-0.015592,0.028491,0.001425,-0.005916,-0.003428,-0.513977,0.250700,-1.191418,0.032847,-0.021056,0.090347,1.000000,0.000007,-0.000030,-0.000017,-0.999972,0.007060,0.001886,-0.001587,-0.809318,-0.214846,0.183336,0.999988,0.003200,0.003750,-0.003147,0.999895,-0.014125,-0.003795,0.014113,0.999893
31043,2,0,-60.0000,3.285495,-2.105187,9.034540,0.012908,-0.014909,0.028492,0.002648,-0.003774,-0.003135,-0.513957,0.253574,-1.198150,0.032853,-0.021054,0.090346,1.000000,0.000013,-0.000019,-0.000016,-0.999972,0.007078,0.001894,-0.001587,-0.811428,-0.215731,0.183411,0.999988,0.003201,0.003765,-0.003147,0.999895,-0.014162,-0.003810,0.014149,0.999893
31044,2,0,-60.0000,3.307650,-2.107565,9.023685,0.036951,-0.019224,0.026395,0.004278,-0.003987,-0.005779,-0.508266,0.249816,-1.201128,0.033074,-0.021079,0.090237,1.000000,0.000021,-0.000020,-0.000029,-0.999972,0.007085,0.001907,-0.001584,-0.812208,-0.217284,0.183024,0.999988,0.003194,0.003792,-0.003140,0.999895,-0.014175,-0.003837,0.014163,0.999892
31045,2,0,-60.0000,3.264851,-2.101213,9.045219,-0.010380,-0.008531,0.030592,0.006619,-0.007133,-0.005560,-0.508378,0.248693,-1.199323,0.032645,-0.021016,0.090453,1.000000,0.000033,-0.000036,-0.000028,-0.999972,0.007082,0.001934,-0.001583,-0.811855,-0.220345,0.182979,0.999988,0.003194,0.003846,-0.003139,0.999895,-0.014169,-0.003891,0.014157,0.999892
31046,2,0,-60.0000,3.287175,-2.103264,9.034377,0.013699,-0.012865,0.028494,0.006417,-0.003679,-0.006393,-0.514203,0.249146,-1.192994,0.032869,-0.021037,0.090344,1.000000,0.000032,-0.000018,-0.000032,-0.999972,0.007076,0.001945,-0.001578,-0.811243,-0.221588,0.182386,0.999987,0.003183,0.003867,-0.003128,0.999895,-0.014158,-0.003912,0.014146,0.999892
31047,2,0,-60.0000,3.295813,-2.069853,9.042176,0.021300,0.021431,0.031433,0.007027,-0.004884,-0.003945,-0.512706,0.250274,-1.190613,0.032956,-0.020702,0.090422,1.000000,0.000035,-0.000024,-0.000020,-0.999972,0.007073,0.001959,-0.001583,-0.810880,-0.223186,0.182995,0.999987,0.003194,0.003895,-0.003138,0.999895,-0.014152,-0.003940,0.014140,0.999892
31048,2,0,-60.0000,3.263951,-2.077284,9.034029,-0.007074,0.012056,0.014926,0.006111,-0.007654,-0.007592,-0.508733,0.248037,-1.191627,0.032635,-0.020777,0.090341,1.000000,0.000031,-0.000038,-0.000038,-0.999972,0.007069,0.001992,-0.001575,-0.810432,-0.227026,0.182122,0.999987,0.003179,0.003962,-0.003122,0.999895,-0.014144,-0.004007,0.014132,0.999892
31049,2,0,-60.0000,3.319020,-2.071217,9.031160,0.045615,0.017793,0.029329,0.004481,-0.007441,-0.004947,-0.509506,0.248782,-1.196827,0.033186,-0.020715,0.090312,1.000000,0.000022,-0.000037,-0.000025,-0.999972,0.007077,0.002020,-0.001574,-0.811361,-0.230186,0.182035,0.999987,0.003177,0.004017,-0.003120,0.999895,-0.014160,-0.004062,0.014148,0.999892
31050,2,0,-60.0000,3.278971,-2.111335,9.015234,0.009941,-0.025207,0.009893,0.007232,-0.003784,-0.007716,-0.514278,0.245548,-1.193521,0.032787,-0.021118,0.090152,1.000000,0.000036,-0.000019,-0.000039,-0.999972,0.007066,0.002033,-0.001564,-0.810078,-0.231735,0.180816,0.999987,0.003156,0.004045,-0.003098,0.999895,-0.014138,-0.004089,0.014125,0.999892
31051,2,0,-60.0000,3.309514,-2.055688,9.060720,0.027156,0.039217,0.050025,0.007537,-0.008965,-0.006467,-0.514936,0.245862,-1.202020,0.033090,-0.020561,0.090608,1.000000,0.000038,-0.000045,-0.000032,-0.999972,0.007058,0.002070,-0.001562,-0.809133,-0.235933,0.180689,0.999987,0.003154,0.004118,-0.003095,0.999895,-0.014121,-0.004162,0.014109,0.999892
31052,2,0,-60.0000,3.302358,-2.087585,9.052745,0.020078,0.006265,0.047096,0.004075,-0.009688,-0.006562,-0.512378,0.253794,-1.198973,0.033019,-0.020879,0.090529,1.000000,0.000020,-0.000048,-0.000033,-0.999972,0.007065,0.002112,-0.001552,-0.809933,-0.240734,0.179512,0.999986,0.003133,0.004202,-0.003073,0.999895,-0.014135,-0.004245,0.014122,0.999891
31053,2,0,-60.0000,3.303216,-2.086888,9.052593,0.020354,0.006949,0.047095,0.006010,-0.005925,-0.008009,-0.513100,0.249666,-1.199869,0.033029,-0.020873,0.090526,1.000000,0.000030,-0.000030,-0.000040,-0.999972,0.007060,0.002135,-0.001538,-0.809403,-0.243436,0.177914,0.999986,0.003105,0.004249,-0.003045,0.999896,-0.014126,-0.004292,0.014113,0.999891
31054,2,0,-60.0000,3.314996,-2.099870,9.022783,0.039605,-0.012438,0.026395,0.008454,-0.010796,-0.007374,-0.505122,0.252282,-1.191602,0.033144,-0.021004,0.090229,1.000000,0.000042,-0.000054,-0.000037,-0.999972,0.007046,0.002183,-0.001540,-0.807862,-0.248882,0.178255,0.999986,0.003111,0.004344,-0.003050,0.999896,-0.014099,-0.004387,0.014086,0.999891
31055,2,0,-60.0000,3.315895,-2.074006,9.071211,0.025696,0.023388,0.065689,0.006010,-0.005924,-0.008009,-0.512340,0.247827,-1.197597,0.033155,-0.020744,0.090712,1.000000,0.000030,-0.000030,-0.000040,-0.999972,0.007042,0.002206,-0.001526,-0.807332,-0.251584,0.176657,0.999986,0.003083,0.004391,-0.003021,0.999896,-0.014090,-0.004434,0.014077,0.999891
31056,2,0,-60.0000,3.303034,-2.087701,8.992619,0.037850,-0.007601,-0.007880,0.005195,-0.005817,-0.006687,-0.506514,0.253826,-1.197994,0.033027,-0.020880,0.089927,1.000000,0.000026,-0.000029,-0.000033,-0.999972,0.007043,0.002228,-0.001521,-0.807460,-0.254118,0.176143,0.999985,0.003074,0.004435,-0.003011,0.999896,-0.014092,-0.004478,0.014079,0.999891
31057,2,0,-60.0000,3.317112,-2.072355,9.071143,0.026238,0.024756,0.065685,0.009880,-0.002950,-0.006301,-0.513243,0.255057,-1.197976,0.033169,-0.020729,0.090711,1.000000,0.000049,-0.000015,-0.000032,-0.999972,0.007022,0.002235,-0.001519,-0.805039,-0.254929,0.175812,0.999985,0.003068,0.004449,-0.003006,0.999897,-0.014050,-0.004492,0.014036,0.999891
31058,2,0,-60.0000,3.293127,-2.071863,9.022402,0.019397,0.013848,0.012814,0.008556,-0.003365,-0.007010,-0.505788,0.251347,-1.203787,0.032929,-0.020724,0.090224,1.000000,0.000043,-0.000017,-0.000035,-0.999972,0.007006,0.002246,-0.001520,-0.803277,-0.256121,0.176018,0.999985,0.003072,0.004470,-0.003009,0.999897,-0.014019,-0.004513,0.014006,0.999892
31059,2,0,-60.0000,3.282561,-2.056850,9.052232,0.000678,0.034607,0.033507,0.010491,0.000398,-0.008458,-0.518689,0.249268,-1.192733,0.032825,-0.020575,0.090521,1.000000,0.000052,0.000002,-0.000042,-0.999972,0.006978,0.002239,-0.001505,-0.799988,-0.255337,0.174257,0.999985,0.003041,0.004456,-0.002979,0.999898,-0.013962,-0.004498,0.013948,0.999893
31060,2,0,-60.0000,3.307349,-2.080028,9.052663,0.022229,0.011743,0.047086,0.010798,-0.004781,-0.007207,-0.515077,0.250392,-1.206807,0.033071,-0.020806,0.090526,1.000000,0.000054,-0.000024,-0.000036,-0.999972,0.006951,0.002257,-0.001505,-0.796940,-0.257393,0.174225,0.999985,0.003041,0.004492,-0.002978,0.999899,-0.013909,-0.004534,0.013895,0.999893
31061,2,0,-60.0000,3.315779,-2.071242,9.012030,0.044007,0.010888,0.010706,0.008250,0.001816,-0.008260,-0.518631,0.245478,-1.196609,0.033158,-0.020718,0.090119,1.000000,0.000041,0.000009,-0.000041,-0.999972,0.006933,0.002243,-0.001485,-0.794841,-0.255798,0.171974,0.999986,0.003001,0.004465,-0.002939,0.999899,-0.013872,-0.004506,0.013859,0.999894
31062,2,0,-60.0000,3.286190,-2.074978,9.063792,-0.001054,0.018096,0.049187,0.011307,-0.004258,-0.005176,-0.516711,0.245422,-1.199894,0.032859,-0.020756,0.090637,1.000000,0.000057,-0.000021,-0.000026,-0.999972,0.006906,0.002256,-0.001490,-0.791810,-0.257375,0.172482,0.999985,0.003010,0.004492,-0.002948,0.999900,-0.013819,-0.004533,0.013806,0.999894
31063,2,0,-60.0000,3.294776,-2.066275,9.023082,0.020722,0.017236,0.012806,0.007742,-0.003257,-0.005687,-0.510850,0.248407,-1.196681,0.032946,-0.020667,0.090231,1.000000,0.000039,-0.000016,-0.000028,-0.999973,0.006896,0.002264,-0.001486,-0.790670,-0.258285,0.172109,0.999985,0.003004,0.004508,-0.002941,0.999900,-0.013799,-0.004549,0.013786,0.999895
31064,2,0,-60.0000,3.284437,-2.076418,9.004257,0.016162,0.002818,-0.005782,0.008660,-0.005089,-0.006593,-0.509149,0.251702,-1.193402,0.032841,-0.020769,0.090043,1.000000,0.000043,-0.000025,-0.000033,-0.999973,0.006880,0.002283,-0.001481,-0.788833,-0.260472,0.171504,0.999985,0.002993,0.004546,-0.002930,0.999901,-0.013767,-0.004587,0.013754,0.999895
31065,2,0,-60.0000,3.287781,-2.072145,9.063863,-0.000250,0.020131,0.049183,0.005197,-0.005816,-0.006686,-0.509230,0.249815,-1.187975,0.032874,-0.020725,0.090639,1.000000,0.000026,-0.000029,-0.000033,-0.999973,0.006882,0.002305,-0.001471,-0.788984,-0.262945,0.170436,0.999985,0.002975,0.004589,-0.002911,0.999901,-0.013770,-0.004630,0.013756,0.999895
31066,2,0,-60.0000,3.310296,-2.074281,9.052904,0.023811,0.015819,0.047077,0.005403,-0.009268,-0.005852,-0.516181,0.245679,-1.198446,0.033098,-0.020746,0.090530,1.000000,0.000027,-0.000046,-0.000029,-0.999972,0.006885,0.002343,-0.001476,-0.789338,-0.267348,0.170989,0.999985,0.002984,0.004666,-0.002920,0.999901,-0.013776,-0.004707,0.013762,0.999894
31067,2,0,-60.0000,3.322261,-2.087515,9.022978,0.043079,-0.003581,0.026388,0.005608,-0.012720,-0.005018,-0.503353,0.244490,-1.190001,0.033216,-0.020879,0.090231,1.000000,0.000028,-0.000064,-0.000025,-0.999972,0.006889,0.002397,-0.001482,-0.789857,-0.273463,0.171719,0.999984,0.002997,0.004773,-0.002931,0.999901,-0.013785,-0.004814,0.013771,0.999894
31068,2,0,-60.0000,3.312583,-2.073199,9.052315,0.024350,0.017166,0.047074,0.000414,-0.011509,-0.002882,-0.514767,0.249109,-1.195826,0.033120,-0.020733,0.090525,1.000000,0.000002,-0.000058,-0.000014,-0.999972,0.006920,0.002443,-0.001486,-0.793400,-0.278717,0.172248,0.999984,0.003006,0.004865,-0.002939,0.999900,-0.013847,-0.004906,0.013832,0.999892
31069,2,0,-60.0000,3.299924,-2.062269,9.022117,0.022316,0.021293,0.012795,0.006624,-0.007124,-0.005562,-0.521841,0.245019,-1.196300,0.032995,-0.020627,0.090222,1.000000,0.000033,-0.000036,-0.000028,-0.999972,0.006917,0.002469,-0.001486,-0.793044,-0.281774,0.172201,0.999983,0.003005,0.004918,-0.002937,0.999900,-0.013841,-0.004959,0.013826,0.999892
31070,2,0,-60.0000,3.325323,-2.085973,9.022207,0.043848,-0.001569,0.026385,0.004182,-0.011409,-0.006143,-0.505834,0.250640,-1.196236,0.033247,-0.020863,0.090224,1.000000,0.000021,-0.000057,-0.000031,-0.999972,0.006925,0.002520,-0.001480,-0.793982,-0.287566,0.171615,0.999983,0.002995,0.005019,-0.002925,0.999900,-0.013857,-0.005060,0.013842,0.999891
31071,2,0,-60.0000,3.304521,-2.082540,9.032850,0.020319,0.004114,0.028490,0.006319,-0.006495,-0.002209,-0.510173,0.241186,-1.188978,0.033042,-0.020829,0.090329,1.000000,0.000032,-0.000032,-0.000011,-0.999972,0.006928,0.002540,-0.001494,-0.794391,-0.289843,0.173202,0.999983,0.003023,0.005059,-0.002953,0.999900,-0.013864,-0.005100,0.013849,0.999891
31072,2,0,-60.0000,3.318923,-2.092450,9.062644,0.022901,0.001344,0.062767,0.003265,-0.009576,-0.005237,-0.522119,0.250063,-1.185118,0.033184,-0.020927,0.090628,1.000000,0.000016,-0.000048,-0.000026,-0.999971,0.006942,0.002578,-0.001492,-0.795900,-0.294274,0.173056,0.999982,0.003020,0.005136,-0.002949,0.999899,-0.013890,-0.005177,0.013875,0.999890
31073,2,0,-60.0000,3.308848,-2.102978,9.043648,0.018363,-0.013064,0.044191,0.005706,-0.005291,-0.004657,-0.519682,0.251103,-1.198788,0.033086,-0.021033,0.090437,1.000000,0.000029,-0.000026,-0.000023,-0.999971,0.006944,0.002595,-0.001492,-0.796134,-0.296194,0.173090,0.999982,0.003021,0.005170,-0.002949,0.999899,-0.013895,-0.005211,0.013879,0.999890
31074,2,0,-60.0000,3.328435,-2.083460,9.021640,0.044882,0.001150,0.026380,0.007948,-0.006706,-0.004856,-0.507839,0.242352,-1.197159,0.033281,-0.020839,0.090217,1.000000,0.000040,-0.000034,-0.000024,-0.999971,0.006935,0.002622,-0.001498,-0.795194,-0.299282,0.173754,0.999982,0.003033,0.005223,-0.002960,0.999899,-0.013878,-0.005265,0.013862,0.999890
31075,2,0,-60.0000,3.307464,-2.079704,9.032426,0.021353,0.006832,0.028486,0.008763,-0.006811,-0.006179,-0.510666,0.243878,-1.205369,0.033071,-0.020802,0.090324,1.000000,0.000044,-0.000034,-0.000031,-0.999971,0.006921,0.002648,-0.001498,-0.793554,-0.302237,0.173747,0.999981,0.003032,0.005275,-0.002959,0.999900,-0.013849,-0.005316,0.013834,0.999890
31076,2,0,-60.0000,3.316086,-2.046275,9.040130,0.028949,0.041100,0.031351,0.005298,-0.002936,-0.001721,-0.515215,0.248108,-1.192316,0.033159,-0.020465,0.090401,1.000000,0.000026,-0.000015,-0.000009,-0.999971,0.006927,0.002650,-0.001504,-0.794245,-0.302432,0.174493,0.999981,0.003045,0.005278,-0.002972,0.999900,-0.013862,-0.005320,0.013846,0.999890
31077,2,0,-60.0000,3.297500,-2.064339,9.062113,0.002922,0.028259,0.049163,0.005805,-0.002466,-0.008847,-0.514342,0.255080,-1.193339,0.032973,-0.020647,0.090621,1.000000,0.000029,-0.000012,-0.000044,-0.999971,0.006921,0.002657,-0.001483,-0.793528,-0.303310,0.171993,0.999981,0.003002,0.005294,-0.002928,0.999900,-0.013849,-0.005335,0.013833,0.999890
31078,2,0,-60.0000,3.305995,-2.055818,9.021367,0.024650,0.027372,0.012774,0.009679,-0.004038,-0.002536,-0.514814,0.249634,-1.199401,0.033058,-0.020563,0.090213,1.000000,0.000048,-0.000020,-0.000013,-0.999971,0.006907,0.002667,-0.001503,-0.791993,-0.304444,0.174331,0.999981,0.003043,0.005314,-0.002969,0.999900,-0.013822,-0.005355,0.013806,0.999890
31079,2,0,-60.0000,3.309001,-2.076506,9.032598,0.022428,0.009534,0.028482,0.006720,0.000305,-0.005203,-0.513023,0.244023,-1.199347,0.033090,-0.020769,0.090325,1.000000,0.000034,0.000002,-0.000026,-0.999972,0.006902,0.002657,-0.001497,-0.791351,-0.303306,0.173587,0.999981,0.003030,0.005294,-0.002956,0.999900,-0.013811,-0.005335,0.013795,0.999891
31080,2,0,-60.0000,3.298276,-2.086793,9.013906,0.017870,-0.004905,0.009913,0.008148,-0.001003,-0.004078,-0.515746,0.247148,-1.195985,0.032982,-0.020872,0.090138,1.000000,0.000041,-0.000005,-0.000020,-0.999972,0.006891,0.002653,-0.001498,-0.790087,-0.302852,0.173742,0.999981,0.003032,0.005286,-0.002959,0.999901,-0.013789,-0.005327,0.013773,0.999891
31081,2,0,-61.0000,3.309323,-2.074752,9.032884,0.022961,0.010882,0.028479,0.008963,-0.001109,-0.005402,-0.517364,0.250798,-1.195795,0.033092,-0.020752,0.090328,1.000000,0.000045,-0.000006,-0.000027,-0.999972,0.006875,0.002650,-0.001496,-0.788254,-0.302523,0.173488,0.999981,0.003028,0.005280,-0.002955,0.999901,-0.013757,-0.005321,0.013741,0.999891
31082,2,0,-61.0000,3.317600,-2.041046,9.040757,0.030513,0.045181,0.031328,0.010287,-0.000691,-0.004695,-0.513079,0.253405,-1.196219,0.033175,-0.020416,0.090407,1.000000,0.000051,-0.000003,-0.000023,-0.999972,0.006853,0.002646,-0.001499,-0.785779,-0.302070,0.173905,0.999981,0.003035,0.005272,-0.002963,0.999902,-0.013714,-0.005313,0.013698,0.999892
31083,2,0,-60.0000,3.288037,-2.069981,9.044021,-0.000326,0.017239,0.030586,0.007438,-0.002622,-0.002337,-0.504529,0.245103,-1.191079,0.032879,-0.020704,0.090440,1.000000,0.000037,-0.000013,-0.000012,-0.999972,0.006850,0.002648,-0.001510,-0.785404,-0.302198,0.175164,0.999981,0.003057,0.005274,-0.002985,0.999902,-0.013707,-0.005316,0.013691,0.999892
31084,2,0,-60.0000,3.299073,-2.058097,9.062961,0.004759,0.033025,0.049147,0.006721,0.000306,-0.005204,-0.515092,0.252418,-1.195637,0.032990,-0.020585,0.090629,1.000000,0.000034,0.000002,-0.000026,-0.999972,0.006844,0.002638,-0.001509,-0.784730,-0.301099,0.174988,0.999982,0.003054,0.005255,-0.002982,0.999902,-0.013695,-0.005296,0.013680,0.999892
31085,2,0,-60.0000,3.288537,-2.068658,9.044142,0.000217,0.018600,0.030584,0.002755,-0.005494,-0.002717,-0.512000,0.242824,-1.188931,0.032883,-0.020688,0.090442,1.000000,0.000014,-0.000027,-0.000014,-0.999972,0.006863,0.002654,-0.001513,-0.786929,-0.302892,0.175513,0.999981,0.003063,0.005286,-0.002990,0.999901,-0.013734,-0.005328,0.013718,0.999892
31086,2,0,-61.0000,3.313439,-2.092564,9.044382,0.021776,-0.004236,0.044191,0.004176,-0.002254,-0.006200,-0.503112,0.246278,-1.192176,0.033133,-0.020929,0.090444,1.000000,0.000021,-0.000011,-0.000031,-0.999972,0.006868,0.002659,-0.001502,-0.787519,-0.303485,0.174170,0.999981,0.003040,0.005297,-0.002967,0.999901,-0.013744,-0.005338,0.013728,0.999892
31087,2,0,-61.0000,3.300347,-2.081515,9.014368,0.019725,-0.000152,0.009911,0.005812,-0.007014,-0.004239,-0.512122,0.247597,-1.190063,0.033000,-0.020818,0.090144,1.000000,0.000029,-0.000035,-0.000021,-0.999972,0.006871,0.002683,-0.001506,-0.787844,-0.306313,0.174654,0.999981,0.003048,0.005346,-0.002974,0.999901,-0.013750,-0.005388,0.013734,0.999891
31088,2,0,-61.0000,3.292858,-2.088561,9.055091,-0.001482,0.002116,0.046302,0.003466,-0.003874,-0.004458,-0.510836,0.249339,-1.201914,0.032926,-0.020888,0.090551,1.000000,0.000017,-0.000019,-0.000022,-0.999972,0.006883,0.002693,-0.001504,-0.789192,-0.307458,0.174504,0.999981,0.003046,0.005366,-0.002971,0.999901,-0.013773,-0.005408,0.013757,0.999891
31089,2,0,-61.0000,3.301436,-2.080389,9.014229,0.020269,0.001199,0.009910,0.005708,-0.005287,-0.004657,-0.511907,0.255745,-1.192906,0.033011,-0.020807,0.090143,1.000000,0.000029,-0.000026,-0.000023,-0.999971,0.006885,0.002710,-0.001504,-0.789425,-0.309375,0.174538,0.999981,0.003046,0.005400,-0.002972,0.999901,-0.013777,-0.005441,0.013761,0.999891
31090,2,0,-61.0000,3.337328,-2.092954,9.033294,0.046667,-0.006501,0.042078,0.005708,-0.005287,-0.004657,-0.509778,0.248455,-1.199757,0.033370,-0.020933,0.090333,1.000000,0.000029,-0.000026,-0.000023,-0.999971,0.006887,0.002728,-0.001512,-0.789680,-0.311358,0.175415,0.999981,0.003062,0.005434,-0.002986,0.999901,-0.013782,-0.005476,0.013765,0.999890
31091,2,0,-63.0000,3.324191,-2.081792,9.003321,0.044612,-0.002427,0.007796,0.005805,-0.002465,-0.008848,-0.517657,0.254743,-1.191243,0.033240,-0.020822,0.090033,1.000000,0.000029,-0.000012,-0.000044,-0.999971,0.006881,0.002735,-0.001490,-0.788962,-0.312235,0.172914,0.999981,0.003018,0.005450,-0.002943,0.999901,-0.013769,-0.005491,0.013753,0.999890
31092,2,0,-61.0000,3.302837,-2.078090,9.014246,0.021059,0.003252,0.009908,0.009577,-0.002307,-0.002955,-0.518909,0.251056,-1.195070,0.033027,-0.020786,0.090142,1.000000,0.000048,-0.000012,-0.000015,-0.999972,0.006866,0.002737,-0.001507,-0.787314,-0.312400,0.174818,0.999980,0.003051,0.005452,-0.002976,0.999901,-0.013741,-0.005494,0.013724,0.999891
31093,2,0,-61.0000,3.313895,-2.065863,9.033245,0.026154,0.019056,0.028459,0.010488,0.000409,-0.008470,-0.517144,0.246217,-1.191234,0.033138,-0.020665,0.090331,1.000000,0.000052,0.000002,-0.000042,-0.999972,0.006838,0.002730,-0.001491,-0.784022,-0.311612,0.173049,0.999981,0.003020,0.005439,-0.002946,0.999902,-0.013683,-0.005479,0.013667,0.999892
31094,2,0,-61.0000,3.313914,-2.064643,9.033517,0.026384,0.019732,0.028457,0.010893,0.002659,-0.006858,-0.504272,0.241375,-1.200718,0.033140,-0.020652,0.090334,1.000000,0.000054,0.000013,-0.000034,-0.999972,0.006809,0.002712,-0.001482,-0.780682,-0.309623,0.171946,0.999981,0.003001,0.005404,-0.002927,0.999903,-0.013625,-0.005444,0.013609,0.999893
31095,2,0,-61.0000,3.295087,-2.082285,9.055726,0.000370,0.006907,0.046300,0.009577,-0.002306,-0.002955,-0.510306,0.248899,-1.198984,0.032950,-0.020828,0.090557,1.000000,0.000048,-0.000012,-0.000015,-0.999972,0.006794,0.002712,-0.001493,-0.779024,-0.309648,0.173243,0.999981,0.003024,0.005404,-0.002950,0.999903,-0.013596,-0.005445,0.013580,0.999893
31096,2,0,-61.0000,3.346644,-2.054352,9.041872,0.055570,0.031203,0.044887,0.006616,0.002034,-0.005624,-0.509538,0.246747,-1.201928,0.033467,-0.020547,0.090418,1.000000,0.000033,0.000010,-0.000028,-0.999972,0.006786,0.002694,-0.001483,-0.778129,-0.307534,0.171994,0.999981,0.003002,0.005367,-0.002929,0.999903,-0.013580,-0.005408,0.013564,0.999893
31097,2,0,-61.0000,3.303222,-2.072890,9.015303,0.022400,0.006629,0.009903,0.010183,0.001040,-0.005117,-0.515841,0.251154,-1.197197,0.033032,-0.020734,0.090152,1.000000,0.000051,0.000005,-0.000026,-0.999972,0.006764,0.002680,-0.001482,-0.775603,-0.305965,0.171860,0.999981,0.002999,0.005340,-0.002927,0.999904,-0.013536,-0.005380,0.013520,0.999894
31098,2,0,-61.0000,3.297975,-2.100861,9.067522,-0.001288,-0.009579,0.062034,0.010998,0.000935,-0.006440,-0.513792,0.238324,-1.203075,0.032979,-0.021015,0.090674,1.000000,0.000055,0.000005,-0.000032,-0.999973,0.006736,0.002669,-0.001478,-0.772330,-0.304699,0.171460,0.999981,0.002992,0.005318,-0.002921,0.999905,-0.013479,-0.005358,0.013463,0.999895
31099,2,0,-61.0000,3.316642,-2.080882,9.045903,0.025276,0.004613,0.044183,0.012518,0.007055,-0.004960,-0.517740,0.236460,-1.193974,0.033169,-0.020815,0.090457,1.000000,0.000063,0.000035,-0.000025,-0.999973,0.006701,0.002626,-0.001476,-0.768330,-0.299745,0.171117,0.999982,0.002987,0.005232,-0.002916,0.999906,-0.013409,-0.005271,0.013394,0.999896
31100,2,0,-61.0000,3.316200,-2.079529,9.046377,0.025525,0.005244,0.044182,0.013438,0.005224,-0.005865,-0.520842,0.250719,-1.192492,0.033164,-0.020802,0.090462,1.000000,0.000067,0.000026,-0.000029,-0.999973,0.006658,0.002594,-0.001459,-0.763428,-0.296082,0.169176,0.999982,0.002953,0.005168,-0.002884,0.999907,-0.013324,-0.005206,0.013309,0.999898
31101,2,0,-61.0000,3.329558,-2.113622,9.028312,0.042302,-0.032694,0.039263,0.013542,0.003500,-0.005447,-0.508834,0.246442,-1.199497,0.033297,-0.021143,0.090281,1.000000,0.000068,0.000017,-0.000027,-0.999974,0.006619,0.002568,-0.001460,-0.758927,-0.293174,0.169202,0.999983,0.002953,0.005117,-0.002885,0.999908,-0.013245,-0.005155,0.013230,0.999899
31102,2,0,-61.0000,3.293876,-2.073898,9.058091,0.002243,0.011600,0.046295,0.013334,0.006951,-0.006285,-0.518812,0.254738,-1.195348,0.032941,-0.020746,0.090578,1.000000,0.000067,0.000035,-0.000031,-0.999974,0.006578,0.002528,-0.001454,-0.754208,-0.288617,0.168536,0.999983,0.002941,0.005037,-0.002875,0.999909,-0.013163,-0.005076,0.013148,0.999901
31103,2,0,-61.0000,3.301493,-2.064882,9.017773,0.023981,0.010652,0.009896,0.014762,0.005646,-0.005160,-0.518003,0.249422,-1.191736,0.033017,-0.020656,0.090175,1.000000,0.000074,0.000028,-0.000026,-0.999974,0.006533,0.002492,-0.001456,-0.749015,-0.284470,0.168684,0.999983,0.002944,0.004965,-0.002879,0.999910,-0.013072,-0.005003,0.013058,0.999902
31104,2,0,-61.0000,3.314617,-2.073693,9.048296,0.026550,0.007987,0.044177,0.015982,0.007791,-0.004873,-0.513185,0.249170,-1.201108,0.033149,-0.020745,0.090480,1.000000,0.000080,0.000039,-0.000024,-0.999975,0.006482,0.002448,-0.001463,-0.743194,-0.279372,0.169494,0.999984,0.002958,0.004876,-0.002895,0.999912,-0.012971,-0.004914,0.012956,0.999904
31105,2,0,-61.0000,3.303249,-2.083257,9.030048,0.022003,-0.006465,0.025638,0.016087,0.006067,-0.004454,-0.506993,0.250092,-1.198102,0.033035,-0.020841,0.090298,1.000000,0.000080,0.000030,-0.000022,-0.999975,0.006431,0.002408,-0.001470,-0.737401,-0.274896,0.170214,0.999984,0.002971,0.004798,-0.002909,0.999913,-0.012870,-0.004836,0.012855,0.999906
31106,2,0,-61.0000,3.319058,-2.113492,9.071815,0.022140,-0.027632,0.075668,0.017816,0.008738,-0.002137,-0.510896,0.255221,-1.202485,0.033194,-0.021143,0.090715,1.000000,0.000089,0.000044,-0.000011,-0.999976,0.006375,0.002354,-0.001493,-0.730970,-0.268659,0.172760,0.999984,0.003015,0.004689,-0.002955,0.999914,-0.012757,-0.004727,0.012743,0.999908
31107,2,0,-61.0000,3.323473,-2.057534,9.068969,0.032195,0.025176,0.062709,0.019036,0.010885,-0.001851,-0.512443,0.252843,-1.195076,0.033239,-0.020584,0.090686,1.000000,0.000095,0.000054,-0.000009,-0.999976,0.006313,0.002289,-0.001511,-0.723876,-0.261154,0.174826,0.999985,0.003051,0.004558,-0.002993,0.999916,-0.012634,-0.004596,0.012620,0.999910
31108,2,0,-61.0000,3.290124,-2.064077,9.061697,0.003828,0.015727,0.046289,0.017510,0.009309,-0.007942,-0.503227,0.240958,-1.192588,0.032905,-0.020650,0.090614,1.000000,0.000088,0.000047,-0.000040,-0.999977,0.006250,0.002238,-0.001511,-0.716613,-0.255398,0.174735,0.999985,0.003050,0.004458,-0.002994,0.999917,-0.012507,-0.004495,0.012493,0.999912
31109,2,0,-61.0000,3.310865,-2.065074,9.051640,0.027908,0.011420,0.044170,0.018827,0.014339,-0.002693,-0.508524,0.244996,-1.196679,0.033115,-0.020660,0.090512,1.000000,0.000094,0.000072,-0.000013,-0.999977,0.006187,0.002157,-0.001522,-0.709335,-0.246071,0.175901,0.999986,0.003070,0.004295,-0.003017,0.999919,-0.012380,-0.004332,0.012367,0.999914
31110,2,0,-60.0000,3.298797,-2.074469,9.033698,0.023360,-0.003065,0.025637,0.018827,0.014341,-0.002694,-0.513584,0.246087,-1.199220,0.032994,-0.020754,0.090333,1.000000,0.000094,0.000072,-0.000013,-0.999978,0.006122,0.002075,-0.001532,-0.701909,-0.236742,0.176967,0.999987,0.003089,0.004132,-0.003038,0.999920,-0.012250,-0.004169,0.012238,0.999916
31111,2,0,-61.0000,3.305489,-2.039816,9.042240,0.030934,0.031251,0.028414,0.022187,0.016803,-0.003026,-0.507937,0.252104,-1.198362,0.033062,-0.020409,0.090417,1.000000,0.000111,0.000084,-0.000015,-0.999979,0.006041,0.001982,-0.001544,-0.692654,-0.226073,0.178296,0.999987,0.003112,0.003946,-0.003064,0.999922,-0.012089,-0.003983,0.012076,0.999919
31112,2,0,-61.0000,3.306637,-2.084383,9.006140,0.042875,-0.021838,0.004988,0.023198,0.022403,-0.003583,-0.505933,0.246418,-1.190017,0.033076,-0.020855,0.090055,1.000000,0.000116,0.000112,-0.000018,-0.999979,0.005953,0.001863,-0.001554,-0.682508,-0.212436,0.179385,0.999988,0.003131,0.003708,-0.003086,0.999924,-0.011912,-0.003745,0.011900,0.999922
31113,2,0,-61.0000,3.318225,-2.092313,9.037444,0.045502,-0.024492,0.039272,0.026050,0.024341,-0.005946,-0.510063,0.246498,-1.195971,0.033193,-0.020936,0.090368,1.000000,0.000130,0.000122,-0.000030,-0.999980,0.005847,0.001736,-0.001552,-0.670318,-0.197919,0.178997,0.999989,0.003124,0.003454,-0.003083,0.999927,-0.011699,-0.003491,0.011688,0.999926
31114,2,0,-61.0000,3.264576,-2.116556,9.052907,-0.009146,-0.047467,0.040741,0.031550,0.027122,-0.006895,-0.503558,0.255759,-1.192380,0.032657,-0.021181,0.090521,1.000000,0.000158,0.000136,-0.000034,-0.999981,0.005712,0.001598,-0.001555,-0.654830,-0.182058,0.179185,0.999990,0.003127,0.003178,-0.003091,0.999930,-0.011429,-0.003213,0.011419,0.999930
31115,2,0,-61.0000,3.270394,-2.080537,9.062049,-0.001573,-0.013150,0.043512,0.035429,0.025504,-0.009738,-0.505315,0.241959,-1.196983,0.032714,-0.020823,0.090613,1.000000,0.000177,0.000128,-0.000049,-0.999982,0.005555,0.001469,-0.001549,-0.636820,-0.167351,0.178432,0.999991,0.003114,0.002921,-0.003082,0.999933,-0.011114,-0.002955,0.011105,0.999934
31116,2,0,-61.0000,3.300811,-2.093900,9.023294,0.041483,-0.037594,0.020749,0.035834,0.027764,-0.008133,-0.506902,0.251833,-1.196881,0.033020,-0.020957,0.090225,1.000000,0.000179,0.000139,-0.000041,-0.999983,0.005398,0.001328,-0.001557,-0.618819,-0.151199,0.179252,0.999992,0.003129,0.002639,-0.003100,0.999937,-0.010800,-0.002673,0.010792,0.999938
31117,2,0,-61.0000,3.287681,-2.076232,9.054509,0.022780,-0.016768,0.041394,0.038185,0.024635,-0.007906,-0.506214,0.245539,-1.198114,0.032887,-0.020781,0.090537,1.000000,0.000191,0.000123,-0.000040,-0.999984,0.005231,0.001201,-0.001565,-0.599694,-0.136741,0.180100,0.999992,0.003143,0.002387,-0.003118,0.999940,-0.010466,-0.002419,0.010459,0.999942
31118,2,0,-61.0000,3.285504,-2.072392,9.056179,0.023044,-0.016080,0.041394,0.039612,0.027880,-0.011400,-0.516581,0.243293,-1.198040,0.032866,-0.020744,0.090553,1.000000,0.000198,0.000139,-0.000057,-0.999985,0.005051,0.001064,-0.001564,-0.579042,-0.120974,0.179817,0.999993,0.003138,0.002111,-0.003117,0.999944,-0.010106,-0.002143,0.010099,0.999947
31119,2,0,-61.0000,3.272162,-2.054294,9.087522,0.004341,0.004749,0.062037,0.040834,0.030037,-0.011119,-0.505706,0.245712,-1.195860,0.032734,-0.020563,0.090866,1.000000,0.000204,0.000150,-0.000056,-0.999987,0.004865,0.000914,-0.001556,-0.557673,-0.103897,0.178833,0.999993,0.003121,0.001813,-0.003103,0.999948,-0.009733,-0.001844,0.009727,0.999951
31120,2,0,-61.0000,3.277981,-2.042629,9.048518,0.026028,0.003758,0.025630,0.045327,0.027226,-0.011506,-0.508435,0.246732,-1.199160,0.032791,-0.020449,0.090476,1.000000,0.000227,0.000136,-0.000058,-0.999988,0.004658,0.000781,-0.001558,-0.533873,-0.088629,0.178960,0.999994,0.003123,0.001547,-0.003109,0.999952,-0.009318,-0.001576,0.009313,0.999955
31121,2,0,-61.0000,3.292279,-2.095035,9.043398,0.040348,-0.052658,0.036522,0.048289,0.027445,-0.013448,-0.508061,0.243438,-1.201716,0.032934,-0.020974,0.090424,1.000000,0.000241,0.000137,-0.000067,-0.999989,0.004433,0.000646,-0.001555,-0.508146,-0.073279,0.178476,0.999994,0.003115,0.001279,-0.003104,0.999956,-0.008869,-0.001307,0.008865,0.999960
31122,2,0,-61.0000,3.260237,-2.119861,9.048660,0.009507,-0.080626,0.035897,0.053794,0.030241,-0.014401,-0.505760,0.247786,-1.201642,0.032615,-0.021225,0.090476,1.000000,0.000269,0.000151,-0.000072,-0.999990,0.004180,0.000500,-0.001557,-0.479129,-0.056592,0.178617,0.999995,0.003117,0.000988,-0.003109,0.999960,-0.008362,-0.001014,0.008359,0.999965
31123,2,0,-61.0000,3.311864,-2.108492,9.048278,0.062220,-0.074756,0.050175,0.062155,0.034977,-0.017718,-0.507805,0.242132,-1.195774,0.033133,-0.021116,0.090470,1.000000,0.000311,0.000175,-0.000089,-0.999991,0.003881,0.000334,-0.001549,-0.444813,-0.037543,0.177616,0.999995,0.003100,0.000655,-0.003095,0.999965,-0.007763,-0.000679,0.007761,0.999970
31124,2,0,-61.0000,3.267668,-1.995298,9.105349,0.012936,0.041802,0.064779,0.065017,0.036932,-0.020088,-0.506921,0.236059,-1.198311,0.032691,-0.019986,0.091041,1.000000,0.000325,0.000185,-0.000100,-0.999992,0.003564,0.000161,-0.001538,-0.408445,-0.017814,0.176304,0.999995,0.003077,0.000311,-0.003075,0.999970,-0.007129,-0.000333,0.007128,0.999975
31125,2,0,-60.0000,3.286748,-2.017301,9.048814,0.051166,0.002184,0.023502,0.061852,0.035652,-0.014378,-0.509570,0.246437,-1.189967,0.032882,-0.020203,0.090476,1.000000,0.000309,0.000178,-0.000072,-0.999993,0.003271,-0.000013,-0.001544,-0.374882,0.002028,0.176953,0.999995,0.003088,-0.000035,-0.003089,0.999974,-0.006543,0.000015,0.006543,0.999979
31126,2,0,-60.0000,3.245274,-1.925991,9.116885,-0.000605,0.100264,0.053861,0.056565,0.033961,-0.017211,-0.503731,0.232081,-1.200788,0.032467,-0.019288,0.091158,1.000000,0.000283,0.000170,-0.000086,-0.999994,0.003000,-0.000173,-0.001533,-0.343713,0.020341,0.175564,0.999995,0.003064,-0.000355,-0.003066,0.999977,-0.005999,0.000337,0.006000,0.999982
31127,2,0,-60.0000,3.278189,-1.959052,9.090180,0.039989,0.057339,0.046871,0.052178,0.030524,-0.011779,-0.509560,0.245965,-1.199641,0.032795,-0.019616,0.090892,1.000000,0.000261,0.000153,-0.000059,-0.999995,0.002759,-0.000324,-0.001540,-0.316067,0.037625,0.176384,0.999995,0.003078,-0.000657,-0.003082,0.999980,-0.005516,0.000640,0.005518,0.999985
31128,2,0,-60.0000,3.259453,-1.994337,9.125534,0.011510,0.026061,0.080541,0.043612,0.029255,-0.009323,-0.499515,0.236690,-1.195081,0.032607,-0.019965,0.091246,1.000000,0.000218,0.000146,-0.000047,-0.999995,0.002562,-0.000470,-0.001547,-0.293495,0.054346,0.177135,0.999995,0.003092,-0.000949,-0.003096,0.999982,-0.005122,0.000933,0.005125,0.999986
31129,2,0,-60.0000,3.246242,-1.976138,9.156618,-0.007191,0.046903,0.101172,0.036493,0.022052,-0.010253,-0.504016,0.235713,-1.201452,0.032472,-0.019780,0.091559,1.000000,0.000182,0.000110,-0.000051,-0.999996,0.002400,-0.000582,-0.001544,-0.274954,0.067063,0.176807,0.999995,0.003086,-0.001170,-0.003091,0.999984,-0.004799,0.001156,0.004802,0.999988
31130,2,0,-60.0000,3.125863,-1.995845,9.144066,-0.116634,0.022003,0.054139,0.020006,0.009038,-0.011922,-0.508741,0.236845,-1.197538,0.031262,-0.019969,0.091437,1.000000,0.000100,0.000045,-0.000060,-0.999996,0.002317,-0.000627,-0.001520,-0.265448,0.072207,0.174008,0.999995,0.003037,-0.001260,-0.003043,0.999985,-0.004633,0.001246,0.004637,0.999988
31131,2,0,-60.0000,3.151373,-2.043933,9.096764,-0.080867,-0.036097,0.028659,0.006025,-0.013571,-0.026596,-0.500518,0.236737,-1.198879,0.031505,-0.020446,0.090969,1.000000,0.000030,-0.000068,-0.000133,-0.999996,0.002285,-0.000546,-0.001428,-0.261806,0.062951,0.163460,0.999995,0.002853,-0.001099,-0.002858,0.999985,-0.004569,0.001086,0.004572,0.999989
31132,2,0,-60.0000,3.186362,-2.131293,9.131197,-0.066647,-0.114271,0.089665,-0.004527,-0.017092,-0.041414,-0.507007,0.241313,-1.195838,0.031851,-0.021317,0.091315,1.000000,-0.000023,-0.000085,-0.000207,-0.999997,0.002280,-0.000431,-0.001254,-0.261221,0.049748,0.143551,0.999996,0.002505,-0.000868,-0.002509,0.999986,-0.004559,0.000857,0.004561,0.999989
31133,2,0,-60.0000,3.224494,-2.143389,9.149851,-0.040192,-0.121859,0.121838,-0.013332,-0.022550,-0.058448,-0.502605,0.237042,-1.201792,0.032228,-0.021437,0.091504,1.000000,-0.000067,-0.000113,-0.000292,-0.999997,0.002291,-0.000273,-0.000992,-0.262548,0.031528,0.113571,0.999998,0.001982,-0.000550,-0.001985,0.999988,-0.004582,0.000541,0.004583,0.999989
31134,2,0,-60.0000,3.273978,-2.169845,9.138902,0.005220,-0.149605,0.133381,-0.018008,-0.016368,-0.068099,-0.510397,0.237215,-1.202431,0.032725,-0.021701,0.091394,1.000000,-0.000090,-0.000082,-0.000340,-0.999997,0.002307,-0.000133,-0.000675,-0.264364,0.015451,0.077359,0.999999,0.001350,-0.000270,-0.001351,0.999988,-0.004614,0.000263,0.004614,0.999989
31135,2,0,-60.0000,3.264923,-2.032901,9.188756,-0.012964,-0.004388,0.148510,-0.029004,-0.017415,-0.070838,-0.497567,0.242152,-1.204377,0.032634,-0.020327,0.091893,1.000000,-0.000145,-0.000087,-0.000354,-0.999997,0.002371,0.000013,-0.000325,-0.271666,-0.001439,0.037281,1.000000,0.000651,0.000025,-0.000651,0.999989,-0.004741,-0.000028,0.004741,0.999989
31136,2,0,-60.0000,3.281651,-2.069668,9.169412,0.003830,-0.042325,0.143671,-0.048282,-0.011228,-0.074582,-0.503233,0.232400,-1.205183,0.032804,-0.020687,0.091701,1.000000,-0.000241,-0.000056,-0.000373,-0.999997,0.002517,0.000134,0.000074,-0.288438,-0.015384,-0.008490,1.000000,-0.000148,0.000269,0.000150,0.999987,-0.005034,-0.000268,0.005034,0.999987
31137,2,0,-60.0000,3.343443,-2.037758,9.113209,0.080435,-0.019668,0.105719,-0.061160,-0.003983,-0.071009,-0.504280,0.242222,-1.205146,0.033425,-0.020362,0.091139,1.000000,-0.000306,-0.000020,-0.000355,-0.999996,0.002728,0.000215,0.000492,-0.312551,-0.024835,-0.056283,0.999999,-0.000982,0.000433,0.000985,0.999985,-0.005455,-0.000428,0.005455,0.999985
31138,2,0,-60.0000,3.277762,-2.133865,9.111147,0.011253,-0.109946,0.101842,-0.058365,0.007234,-0.064329,-0.507733,0.236480,-1.202658,0.032774,-0.021323,0.091117,1.000000,-0.000292,0.000036,-0.000322,-0.999995,0.002931,0.000235,0.000882,-0.335858,-0.027180,-0.101013,0.999998,-0.001763,0.000474,0.001766,0.999981,-0.005862,-0.000464,0.005863,0.999983
31139,2,0,-60.0000,3.220642,-2.272485,8.972150,-0.008217,-0.272625,-0.016678,-0.032368,0.010602,-0.065906,-0.510272,0.237336,-1.200564,0.032204,-0.022721,0.089723,1.000000,-0.000162,0.000053,-0.000330,-0.999995,0.003009,0.000239,0.001243,-0.344751,-0.027841,-0.142388,0.999997,-0.002485,0.000486,0.002488,0.999979,-0.006017,-0.000471,0.006018,0.999982
31140,2,0,-60.0000,3.225364,-2.166552,9.064707,-0.026506,-0.149154,0.048494,-0.000407,0.005253,-0.071250,-0.505671,0.224907,-1.197445,0.032248,-0.021677,0.090646,1.000000,-0.000002,0.000026,-0.000356,-0.999994,0.002928,0.000277,0.001570,-0.335519,-0.032250,-0.179829,0.999995,-0.003139,0.000563,0.003142,0.999978,-0.005856,-0.000544,0.005858,0.999983
31141,2,0,-60.0000,3.299189,-2.138411,9.040614,0.052474,-0.129780,0.044825,0.024546,0.012190,-0.072354,-0.500723,0.228816,-1.207193,0.032990,-0.021407,0.090401,1.000000,0.000123,0.000061,-0.000362,-0.999994,0.002726,0.000281,0.001869,-0.312367,-0.032748,-0.214064,0.999993,-0.003736,0.000572,0.003739,0.999978,-0.005452,-0.000551,0.005454,0.999985
31142,2,0,-60.0000,3.406517,-2.070647,9.133070,0.129363,-0.047989,0.151543,0.027752,0.021038,-0.068592,-0.508010,0.236470,-1.196669,0.034068,-0.020731,0.091324,1.000000,0.000139,0.000105,-0.000343,-0.999994,0.002510,0.000237,0.002163,-0.287551,-0.027778,-0.247773,0.999991,-0.004324,0.000485,0.004327,0.999978,-0.005019,-0.000463,0.005021,0.999987
31143,2,0,-60.0000,3.462078,-1.883453,9.149813,0.192320,0.134381,0.147103,0.015070,0.045952,-0.068587,-0.512121,0.233999,-1.196744,0.034635,-0.018853,0.091489,1.000000,0.000075,0.000230,-0.000343,-0.999994,0.002347,0.000072,0.002494,-0.268886,-0.008902,-0.285746,0.999988,-0.004987,0.000155,0.004988,0.999977,-0.004693,-0.000132,0.004694,0.999989
31144,2,0,-60.0000,3.539827,-1.722475,9.167663,0.276590,0.293317,0.156304,-0.016718,0.069059,-0.057672,-0.508994,0.236760,-1.196814,0.035425,-0.017227,0.091666,1.000000,-0.000084,0.000345,-0.000288,-0.999993,0.002343,-0.000216,0.002848,-0.268527,0.024018,-0.326369,0.999984,-0.005696,-0.000419,0.005694,0.999973,-0.004687,0.000446,0.004684,0.999989
31145,2,0,-60.0000,3.427742,-1.559221,9.192727,0.182207,0.460013,0.109107,-0.052582,0.092606,-0.049327,-0.508912,0.233593,-1.207435,0.034316,-0.015577,0.091915,1.000000,-0.000263,0.000463,-0.000247,-0.999991,0.002513,-0.000630,0.003248,-0.288211,0.071311,-0.372371,0.999978,-0.006499,-0.001245,0.006493,0.999966,-0.005030,0.001277,0.005022,0.999987
31146,2,0,-60.0000,3.441207,-1.765278,9.177819,0.193589,0.260812,0.141456,-0.090683,0.108457,-0.031542,-0.509674,0.235591,-1.205247,0.034459,-0.017617,0.091768,1.000000,-0.000453,0.000542,-0.000158,-0.999989,0.002886,-0.001140,0.003642,-0.331178,0.129448,-0.417708,0.999971,-0.007290,-0.002259,0.007277,0.999957,-0.005780,0.002301,0.005763,0.999981
31147,2,0,-60.0000,3.414610,-1.789284,9.261308,0.151031,0.264957,0.214271,-0.124656,0.114716,-0.011120,-0.513452,0.238908,-1.198858,0.034198,-0.017837,0.092605,1.000000,-0.000623,0.000574,-0.000056,-0.999985,0.003450,-0.001704,0.004007,-0.396101,0.193696,-0.459793,0.999962,-0.008025,-0.003381,0.008001,0.999944,-0.006913,0.003436,0.006886,0.999970
31148,2,0,-60.0000,3.417311,-1.812529,9.292874,0.153649,0.262402,0.248539,-0.158625,0.116436,0.013906,-0.507143,0.237842,-1.204350,0.034228,-0.018049,0.092923,1.000000,-0.000793,0.000582,0.000070,-0.999979,0.004214,-0.002301,0.004310,-0.483979,0.261637,-0.495052,0.999952,-0.008640,-0.004566,0.008601,0.999927,-0.008447,0.004639,0.008407,0.999954
31149,2,0,-60.0000,3.497830,-1.858005,9.322422,0.230125,0.241652,0.310708,-0.199454,0.128704,0.034382,-0.504732,0.237884,-1.197172,0.035041,-0.018481,0.093220,0.999999,-0.000997,0.000644,0.000172,-0.999971,0.005198,-0.002984,0.004602,-0.597261,0.339162,-0.529095,0.999940,-0.009234,-0.005919,0.009172,0.999904,-0.010424,0.006015,0.010369,0.999928
31150,2,0,-60.0000,3.211464,-1.967479,9.117680,0.029586,0.111551,0.051550,-0.218582,0.139175,0.059202,-0.499199,0.247827,-1.193018,0.032184,-0.019566,0.091176,0.999999,-0.001093,0.000696,0.000296,-0.999961,0.006309,-0.003742,0.004820,-0.724997,0.425343,-0.554988,0.999926,-0.009686,-0.007424,0.009592,0.999874,-0.012653,0.007545,0.012581,0.999892
31151,2,0,-60.0000,3.051754,-1.769252,9.099126,-0.086122,0.323322,-0.059455,-0.221820,0.123127,0.064137,-0.502845,0.239447,-1.201103,0.030579,-0.017582,0.090992,0.999999,-0.001109,0.000616,0.000321,-0.999950,0.007448,-0.004430,0.005004,-0.856089,0.503356,-0.577221,0.999911,-0.010074,-0.008785,0.009942,0.999839,-0.014940,0.008934,0.014852,0.999850
31152,2,0,-60.0000,3.161039,-1.790730,9.124919,0.021395,0.331225,0.003259,-0.245524,0.123227,0.069828,-0.495359,0.248413,-1.201070,0.031673,-0.017784,0.091252,0.999999,-0.001228,0.000616,0.000349,-0.999935,0.008709,-0.005123,0.005198,-1.001088,0.581803,-0.600775,0.999893,-0.010485,-0.010154,0.010306,0.999794,-0.017470,0.010335,0.017364,0.999796
31153,2,0,-60.0000,3.036350,-1.935031,8.974003,-0.048091,0.181621,-0.145157,-0.252566,0.107065,0.077947,-0.499449,0.253009,-1.209363,0.030419,-0.019225,0.089748,0.999999,-0.001263,0.000535,0.000390,-0.999919,0.010022,-0.005748,0.005352,-1.152025,0.652439,-0.619922,0.999877,-0.010819,-0.011387,0.010588,0.999742,-0.020104,0.011602,0.019981,0.999733
31154,2,0,-60.0000,2.990742,-1.946909,8.952485,-0.074034,0.190500,-0.177328,-0.248910,0.092512,0.083060,-0.497862,0.244697,-1.200565,0.029957,-0.019345,0.089535,0.999999,-0.001245,0.000463,0.000415,-0.999901,0.011331,-0.006306,0.005457,-1.302444,0.715477,-0.633540,0.999861,-0.011056,-0.012487,0.010770,0.999684,-0.022728,0.012734,0.022591,0.999664
31155,2,0,-60.0000,2.936134,-2.093767,8.827827,-0.088684,0.042866,-0.277200,-0.232818,0.079351,0.073395,-0.492165,0.252128,-1.201334,0.029404,-0.020824,0.088291,0.999999,-0.001164,0.000397,0.000367,-0.999883,0.012553,-0.006791,0.005571,-1.442943,0.770053,-0.648192,0.999846,-0.011312,-0.013440,0.010971,0.999623,-0.025179,0.013719,0.025028,0.999593
31156,2,0,-59.0000,2.846004,-2.300035,8.696498,-0.141726,-0.167127,-0.380247,-0.194124,0.057665,0.062747,-0.489430,0.254449,-1.198795,0.028492,-0.022907,0.086979,0.999999,-0.000971,0.000288,0.000314,-0.999866,0.013582,-0.007156,0.005655,-1.561140,0.811109,-0.659181,0.999834,-0.011503,-0.014156,0.011115,0.999567,-0.027241,0.014463,0.027079,0.999529
31157,2,0,-59.0000,2.846202,-2.359830,8.715620,-0.146331,-0.203357,-0.348602,-0.146590,0.031942,0.050989,-0.493954,0.254085,-1.205842,0.028482,-0.023527,0.087169,1.000000,-0.000733,0.000160,0.000255,-0.999853,0.014378,-0.007384,0.005683,-1.652610,0.836653,-0.663424,0.999826,-0.011577,-0.014602,0.011153,0.999522,-0.028836,0.014929,0.028669,0.999477
31158,2,0,-59.0000,3.025737,-2.406211,8.819817,-0.007784,-0.210139,-0.185129,-0.109430,0.016010,0.043815,-0.498003,0.250790,-1.196451,0.030270,-0.024007,0.088209,1.000000,-0.000547,0.000080,0.000219,-0.999843,0.014992,-0.007525,0.005672,-1.723015,0.852455,-0.662849,0.999822,-0.011567,-0.014878,0.011116,0.999486,-0.030064,0.015218,0.029894,0.999437
31159,2,0,-59.0000,3.013019,-2.329143,8.774459,0.002259,-0.135731,-0.248384,-0.081839,0.005191,0.044491,-0.494122,0.259550,-1.198685,0.030138,-0.023249,0.087753,1.000000,-0.000409,0.000026,0.000222,-0.999835,0.015482,-0.007615,0.005597,-1.779137,0.862589,-0.654855,0.999821,-0.011428,-0.015054,0.010956,0.999458,-0.031043,0.015401,0.030873,0.999405
31160,2,0,-59.0000,2.952862,-2.174407,8.837282,-0.061186,0.037833,-0.245043,-0.056240,-0.012299,0.041590,-0.485874,0.268941,-1.185259,0.029528,-0.021713,0.088381,1.000000,-0.000281,-0.000061,0.000208,-0.999830,0.015850,-0.007614,0.005484,-1.821269,0.862459,-0.642232,0.999824,-0.011208,-0.015052,0.010725,0.999437,-0.031778,0.015400,0.031611,0.999382
31161,2,0,-58.0000,2.973001,-2.160318,8.814463,-0.034663,0.051945,-0.262998,-0.037040,-0.024350,0.026304,-0.494749,0.263457,-1.196886,0.029722,-0.021583,0.088152,1.000000,-0.000185,-0.000122,0.000132,-0.999827,0.016110,-0.007540,0.005389,-1.850932,0.853943,-0.631457,0.999828,-0.011020,-0.014904,0.010534,0.999423,-0.032296,0.015251,0.032133,0.999367
31162,2,0,-58.0000,2.910584,-2.179839,8.795440,-0.091706,0.032143,-0.295675,-0.012729,-0.037653,0.018090,-0.492599,0.264796,-1.203055,0.029091,-0.021790,0.087961,1.000000,-0.000064,-0.000188,0.000090,-0.999827,0.016247,-0.007390,0.005272,-1.866495,0.836844,-0.617882,0.999835,-0.010783,-0.014605,0.010302,0.999416,-0.032567,0.014948,0.032411,0.999363
31163,2,0,-58.0000,3.070816,-2.018527,9.082275,-0.018854,0.261025,-0.018628,-0.006072,-0.058597,0.017129,-0.498705,0.258946,-1.192210,0.030683,-0.020180,0.090832,1.000000,-0.000030,-0.000293,0.000086,-0.999828,0.016359,-0.007138,0.005133,-1.879001,0.808217,-0.601548,0.999845,-0.010498,-0.014106,0.010031,0.999412,-0.032786,0.014441,0.032639,0.999363
31164,2,0,-58.0000,3.084857,-2.109599,9.063692,-0.011795,0.170971,-0.010244,-0.020577,-0.058500,0.013731,-0.493852,0.267557,-1.204651,0.030824,-0.021085,0.090648,1.000000,-0.000103,-0.000292,0.000069,-0.999827,0.016533,-0.006881,0.005036,-1.898670,0.778837,-0.590113,0.999855,-0.010298,-0.013593,0.009843,0.999403,-0.033129,0.013926,0.032990,0.999359
31165,2,0,-58.0000,3.021904,-2.401671,9.045470,-0.093548,-0.114202,0.020861,-0.004512,-0.064449,0.004505,-0.490391,0.259714,-1.202712,0.030190,-0.024014,0.090465,1.000000,-0.000023,-0.000322,0.000023,-0.999828,0.016619,-0.006587,0.004946,-1.908328,0.745229,-0.579317,0.999864,-0.010110,-0.013006,0.009672,0.999399,-0.033298,0.013335,0.033167,0.999361
31166,2,0,-58.0000,3.228589,-2.393553,9.177024,0.057172,-0.071981,0.205406,-0.008602,-0.059341,0.006504,-0.500273,0.264706,-1.195130,0.032259,-0.023931,0.091781,1.000000,-0.000043,-0.000297,0.000033,-0.999828,0.016725,-0.006319,0.004860,-1.920228,0.714683,-0.568969,0.999873,-0.009929,-0.012473,0.009507,0.999393,-0.033505,0.012798,0.033383,0.999361
31167,2,0,-58.0000,3.200890,-2.379563,9.214806,0.014693,-0.046113,0.228145,-0.024823,-0.068288,0.014905,-0.493189,0.265694,-1.193944,0.031979,-0.023782,0.092162,1.000000,-0.000124,-0.000341,0.000075,-0.999827,0.016925,-0.006018,0.004751,-1.942931,0.680257,-0.556019,0.999882,-0.009704,-0.011872,0.009296,0.999382,-0.033902,0.012194,0.033787,0.999355
31168,2,0,-59.0000,3.252702,-2.164192,9.311192,0.044462,0.191883,0.283019,-0.049847,-0.070420,0.029450,-0.488549,0.266325,-1.191678,0.032497,-0.021614,0.093129,1.000000,-0.000249,-0.000352,0.000147,-0.999824,0.017267,-0.005720,0.004613,-1.981845,0.646279,-0.539875,0.999892,-0.009422,-0.011279,0.009027,0.999361,-0.034581,0.011598,0.034475,0.999338
31169,2,0,-58.0000,3.141908,-2.020179,9.254999,-0.038277,0.326251,0.162271,-0.087622,-0.074364,0.038397,-0.501425,0.270996,-1.197760,0.031389,-0.020155,0.092571,1.000000,-0.000438,-0.000372,0.000192,-0.999817,0.017804,-0.005416,0.004491,-2.043096,0.611351,-0.525582,0.999901,-0.009172,-0.010670,0.008787,0.999326,-0.035649,0.010990,0.035552,0.999307
